participant_id,trial_number,block,condition,version,key_correct,key_response,correct,error_type,PSE,comparison,T_U,T_I,Acuity (Sigma),accuracy,response_time,start_time,end_time
manda01,1,PRACTICE1,duration,1,k,k,1,,160.00 ms,544.00 ms,356.00 ms,160.00 ms,65.33 ms,100.00%,2070.00 ms,2025-11-27T18:00:05.144426,2025-11-27T18:01:32.113313
manda01,2,PRACTICE1,duration,1,d,d,1,,424.00 ms,304.00 ms,620.00 ms,228.00 ms,130.67 ms,100.00%,2651.00 ms,2025-11-27T18:00:05.144426,2025-11-27T18:01:40.029495
manda01,3,PRACTICE1,duration,1,d,d,1,,464.00 ms,280.00 ms,636.00 ms,292.00 ms,114.67 ms,100.00%,1545.00 ms,2025-11-27T18:00:05.144426,2025-11-27T18:01:48.001525
manda01,4,PRACTICE1,duration,1,d,d,1,,496.00 ms,320.00 ms,640.00 ms,348.00 ms,97.33 ms,100.00%,2745.00 ms,2025-11-27T18:00:05.144426,2025-11-27T18:01:57.080839
manda01,5,PRACTICE1,duration,1,k,d,0,response_error,520.00 ms,352.00 ms,640.00 ms,392.00 ms,82.67 ms,80.00%,4197.00 ms,2025-11-27T18:00:05.144426,2025-11-27T18:02:06.313528
manda01,6,PRACTICE1,duration,1,d,d,1,,544.00 ms,376.00 ms,640.00 ms,432.00 ms,69.33 ms,83.33%,2467.00 ms,2025-11-27T18:00:05.144426,2025-11-27T18:02:14.771635
manda01,7,PRACTICE1,duration,1,k,k,1,,472.00 ms,432.00 ms,580.00 ms,364.00 ms,72.00 ms,85.71%,1456.00 ms,2025-11-27T18:00:05.144426,2025-11-27T18:02:21.423777
manda01,8,PRACTICE1,duration,1,k,d,0,response_error,488.00 ms,360.00 ms,592.00 ms,384.00 ms,69.33 ms,75.00%,1260.00 ms,2025-11-27T18:00:05.144426,2025-11-27T18:02:27.670668
manda01,9,PRACTICE1,duration,1,k,d,0,response_error,512.00 ms,384.00 ms,612.00 ms,412.00 ms,66.67 ms,66.67%,2825.00 ms,2025-11-27T18:00:05.144426,2025-11-27T18:02:36.704536
manda01,10,PRACTICE1,duration,1,k,k,1,,464.00 ms,416.00 ms,548.00 ms,380.00 ms,56.00 ms,70.00%,4110.00 ms,2025-11-27T18:00:05.144426,2025-11-27T18:02:47.477570
manda01,11,BLOCK1,duration,1,k,k,1,,160.00 ms,544.00 ms,356.00 ms,160.00 ms,65.33 ms,100.00%,962.00 ms,2025-11-27T18:00:05.144426,2025-11-27T18:03:32.725395
manda01,12,BLOCK1,duration,1,d,d,1,,424.00 ms,304.00 ms,620.00 ms,228.00 ms,130.67 ms,100.00%,1865.00 ms,2025-11-27T18:00:05.144426,2025-11-27T18:03:40.208718
manda01,13,BLOCK1,duration,1,k,k,1,,384.00 ms,568.00 ms,556.00 ms,212.00 ms,114.67 ms,100.00%,1140.00 ms,2025-11-27T18:00:05.144426,2025-11-27T18:03:48.704521
manda01,14,BLOCK1,duration,1,k,k,1,,352.00 ms,528.00 ms,508.00 ms,196.00 ms,104.00 ms,100.00%,1215.00 ms,2025-11-27T18:00:05.144426,2025-11-27T18:03:56.634562
manda01,15,BLOCK1,duration,1,k,k,1,,328.00 ms,496.00 ms,476.00 ms,180.00 ms,98.67 ms,100.00%,2635.00 ms,2025-11-27T18:00:05.144426,2025-11-27T18:04:05.175642
manda01,16,BLOCK1,duration,1,d,k,0,response_error,304.00 ms,472.00 ms,440.00 ms,168.00 ms,90.67 ms,83.33%,1870.00 ms,2025-11-27T18:00:05.144426,2025-11-27T18:04:13.852569
manda01,17,BLOCK1,duration,1,d,d,1,,328.00 ms,168.00 ms,448.00 ms,208.00 ms,80.00 ms,85.71%,1125.00 ms,2025-11-27T18:00:05.144426,2025-11-27T18:04:21.249598
manda01,18,BLOCK1,duration,1,d,d,1,,344.00 ms,208.00 ms,452.00 ms,236.00 ms,72.00 ms,87.50%,1200.00 ms,2025-11-27T18:00:05.144426,2025-11-27T18:04:29.412924
manda01,19,BLOCK1,duration,1,d,d,1,,360.00 ms,232.00 ms,460.00 ms,260.00 ms,66.67 ms,88.89%,1200.00 ms,2025-11-27T18:00:05.144426,2025-11-27T18:04:37.295036
manda01,20,BLOCK1,duration,1,d,d,1,,376.00 ms,256.00 ms,468.00 ms,284.00 ms,61.33 ms,90.00%,2070.00 ms,2025-11-27T18:00:05.144426,2025-11-27T18:04:45.172623
manda01,21,BLOCK1,duration,1,k,d,0,response_error,392.00 ms,288.00 ms,480.00 ms,304.00 ms,58.67 ms,81.82%,3387.00 ms,2025-11-27T18:00:05.144426,2025-11-27T18:04:53.982663
manda01,22,BLOCK1,duration,1,k,d,0,response_error,408.00 ms,304.00 ms,492.00 ms,324.00 ms,56.00 ms,75.00%,5370.00 ms,2025-11-27T18:00:05.144426,2025-11-27T18:05:05.901632
manda01,23,BLOCK1,duration,1,k,k,1,,392.00 ms,496.00 ms,472.00 ms,312.00 ms,53.33 ms,76.92%,2470.00 ms,2025-11-27T18:00:05.144426,2025-11-27T18:05:15.632665
manda01,24,BLOCK1,duration,1,d,k,0,response_error,384.00 ms,472.00 ms,460.00 ms,308.00 ms,50.67 ms,71.43%,1725.00 ms,2025-11-27T18:00:05.144426,2025-11-27T18:05:23.652617
manda01,25,BLOCK1,duration,1,k,k,1,,368.00 ms,464.00 ms,440.00 ms,296.00 ms,48.00 ms,73.33%,1255.00 ms,2025-11-27T18:00:05.144426,2025-11-27T18:05:32.207229
manda01,26,BLOCK1,duration,1,k,k,1,,360.00 ms,440.00 ms,428.00 ms,292.00 ms,45.33 ms,75.00%,2860.00 ms,2025-11-27T18:00:05.144426,2025-11-27T18:05:41.973290
manda01,27,BLOCK1,duration,1,d,d,1,,368.00 ms,288.00 ms,436.00 ms,300.00 ms,45.33 ms,76.47%,1095.00 ms,2025-11-27T18:00:05.144426,2025-11-27T18:05:48.986754
manda01,28,BLOCK1,duration,1,d,d,1,,376.00 ms,296.00 ms,440.00 ms,312.00 ms,42.67 ms,77.78%,1360.00 ms,2025-11-27T18:00:05.144426,2025-11-27T18:05:57.324979
manda01,29,BLOCK1,duration,1,d,d,1,,392.00 ms,312.00 ms,456.00 ms,328.00 ms,42.67 ms,78.95%,1290.00 ms,2025-11-27T18:00:05.144426,2025-11-27T18:06:05.116803
manda01,30,BLOCK1,duration,1,d,d,1,,400.00 ms,328.00 ms,460.00 ms,340.00 ms,40.00 ms,80.00%,4115.00 ms,2025-11-27T18:00:05.144426,2025-11-27T18:06:14.641772
manda01,31,BLOCK1,duration,1,d,d,1,,408.00 ms,344.00 ms,468.00 ms,348.00 ms,40.00 ms,80.95%,1483.00 ms,2025-11-27T18:00:05.144426,2025-11-27T18:06:21.752408
manda01,32,BLOCK1,duration,1,k,k,1,,400.00 ms,472.00 ms,460.00 ms,340.00 ms,40.00 ms,81.82%,2120.00 ms,2025-11-27T18:00:05.144426,2025-11-27T18:06:31.088740
manda01,33,BLOCK1,duration,1,k,k,1,,392.00 ms,464.00 ms,444.00 ms,340.00 ms,34.67 ms,82.61%,1005.00 ms,2025-11-27T18:00:05.144426,2025-11-27T18:06:38.196693
manda01,34,BLOCK1,duration,1,d,d,1,,400.00 ms,344.00 ms,452.00 ms,348.00 ms,34.67 ms,83.33%,2945.00 ms,2025-11-27T18:00:05.144426,2025-11-27T18:06:48.170797
manda01,35,BLOCK1,duration,1,d,d,1,,408.00 ms,352.00 ms,460.00 ms,356.00 ms,34.67 ms,84.00%,1275.00 ms,2025-11-27T18:00:05.144426,2025-11-27T18:06:55.737790
manda01,36,BLOCK1,duration,1,k,k,1,,400.00 ms,464.00 ms,452.00 ms,348.00 ms,34.67 ms,84.62%,1795.00 ms,2025-11-27T18:00:05.144426,2025-11-27T18:07:04.859724
manda01,37,BLOCK1,duration,1,k,d,0,response_error,408.00 ms,352.00 ms,460.00 ms,356.00 ms,34.67 ms,81.48%,1570.00 ms,2025-11-27T18:00:05.144426,2025-11-27T18:07:13.684746
manda01,38,BLOCK1,duration,1,k,k,1,,400.00 ms,464.00 ms,448.00 ms,352.00 ms,32.00 ms,82.14%,2700.00 ms,2025-11-27T18:00:05.144426,2025-11-27T18:07:22.945784
manda01,39,BLOCK1,duration,1,d,d,1,,408.00 ms,352.00 ms,460.00 ms,356.00 ms,34.67 ms,82.76%,1685.00 ms,2025-11-27T18:00:05.144426,2025-11-27T18:07:31.053716
manda01,40,BLOCK1,duration,1,k,k,1,,400.00 ms,464.00 ms,448.00 ms,352.00 ms,32.00 ms,83.33%,880.00 ms,2025-11-27T18:00:05.144426,2025-11-27T18:07:39.237812
manda01,41,BLOCK1,duration,1,k,k,1,,392.00 ms,448.00 ms,440.00 ms,344.00 ms,32.00 ms,83.87%,2160.00 ms,2025-11-27T18:00:05.144426,2025-11-27T18:07:47.660784
manda01,42,BLOCK1,duration,1,k,d,0,response_error,400.00 ms,344.00 ms,444.00 ms,356.00 ms,29.33 ms,81.25%,1845.00 ms,2025-11-27T18:00:05.144426,2025-11-27T18:07:56.133784
manda01,43,BLOCK1,duration,1,d,d,1,,408.00 ms,360.00 ms,452.00 ms,364.00 ms,29.33 ms,81.82%,905.00 ms,2025-11-27T18:00:05.144426,2025-11-27T18:08:03.007242
manda01,44,BLOCK1,duration,1,k,k,1,,400.00 ms,456.00 ms,444.00 ms,356.00 ms,29.33 ms,82.35%,925.00 ms,2025-11-27T18:00:05.144426,2025-11-27T18:08:09.542817
manda01,45,BLOCK1,duration,1,k,k,1,,400.00 ms,448.00 ms,444.00 ms,356.00 ms,29.33 ms,82.86%,1895.00 ms,2025-11-27T18:00:05.144426,2025-11-27T18:08:18.558915
manda01,46,BLOCK1,duration,1,k,k,1,,392.00 ms,448.00 ms,436.00 ms,348.00 ms,29.33 ms,83.33%,2415.00 ms,2025-11-27T18:00:05.144426,2025-11-27T18:08:26.461958
manda01,47,BLOCK1,duration,1,d,d,1,,400.00 ms,352.00 ms,440.00 ms,360.00 ms,26.67 ms,83.78%,1060.00 ms,2025-11-27T18:00:05.144426,2025-11-27T18:08:34.257761
manda01,48,BLOCK1,duration,1,k,k,1,,392.00 ms,440.00 ms,436.00 ms,348.00 ms,29.33 ms,84.21%,1130.00 ms,2025-11-27T18:00:05.144426,2025-11-27T18:08:41.222831
manda01,49,BLOCK1,duration,1,k,k,1,,384.00 ms,432.00 ms,424.00 ms,344.00 ms,26.67 ms,84.62%,4135.00 ms,2025-11-27T18:00:05.144426,2025-11-27T18:08:52.242853
manda01,50,BLOCK1,duration,1,k,k,1,,384.00 ms,424.00 ms,424.00 ms,344.00 ms,26.67 ms,85.00%,885.00 ms,2025-11-27T18:00:05.144426,2025-11-27T18:09:00.404876
manda01,51,BLOCK1,duration,1,k,d,0,response_error,384.00 ms,344.00 ms,424.00 ms,344.00 ms,26.67 ms,82.93%,1060.00 ms,2025-11-27T18:00:05.144426,2025-11-27T18:09:07.753826
manda01,52,BLOCK1,duration,1,d,d,1,,392.00 ms,344.00 ms,428.00 ms,356.00 ms,24.00 ms,83.33%,1550.00 ms,2025-11-27T18:00:05.144426,2025-11-27T18:09:15.611817
manda01,53,BLOCK1,duration,1,k,k,1,,384.00 ms,432.00 ms,424.00 ms,344.00 ms,26.67 ms,83.72%,830.00 ms,2025-11-27T18:00:05.144426,2025-11-27T18:09:22.663864
manda01,54,BLOCK1,duration,1,d,d,1,,392.00 ms,344.00 ms,428.00 ms,356.00 ms,24.00 ms,84.09%,805.00 ms,2025-11-27T18:00:05.144426,2025-11-27T18:09:30.651844
manda01,55,BLOCK1,duration,1,d,d,1,,392.00 ms,352.00 ms,432.00 ms,352.00 ms,26.67 ms,84.44%,1355.00 ms,2025-11-27T18:00:05.144426,2025-11-27T18:09:38.658904
manda01,56,BLOCK1,duration,1,k,k,1,,392.00 ms,432.00 ms,428.00 ms,356.00 ms,24.00 ms,84.78%,860.00 ms,2025-11-27T18:00:05.144426,2025-11-27T18:09:45.224853
manda01,57,BLOCK1,duration,1,k,d,0,response_error,392.00 ms,352.00 ms,428.00 ms,356.00 ms,24.00 ms,82.98%,1175.00 ms,2025-11-27T18:00:05.144426,2025-11-27T18:09:53.389942
manda01,58,BLOCK1,duration,1,k,d,0,response_error,400.00 ms,352.00 ms,436.00 ms,364.00 ms,24.00 ms,81.25%,1220.00 ms,2025-11-27T18:00:05.144426,2025-11-27T18:10:01.816912
manda01,59,BLOCK1,duration,1,k,k,1,,392.00 ms,432.00 ms,428.00 ms,356.00 ms,24.00 ms,81.63%,1090.00 ms,2025-11-27T18:00:05.144426,2025-11-27T18:10:09.798850
manda01,60,BLOCK1,duration,1,d,d,1,,400.00 ms,352.00 ms,436.00 ms,364.00 ms,24.00 ms,82.00%,900.00 ms,2025-11-27T18:00:05.144426,2025-11-27T18:10:16.250901
manda01,61,PRACTICE2,loudness,1,k,k,1,,0.001 amps,800.20 amps,0.409 amps,0.001 amps,0.14 amps,100.00%,1335.00 ms,2025-11-27T18:00:05.144426,2025-11-27T18:10:47.494956
manda01,62,PRACTICE2,loudness,1,d,d,1,,0.550 amps,300.70 amps,0.959 amps,0.142 amps,0.27 amps,100.00%,795.00 ms,2025-11-27T18:00:05.144426,2025-11-27T18:10:53.614937
manda01,63,PRACTICE2,loudness,1,d,d,1,,0.634 amps,250.75 amps,0.992 amps,0.275 amps,0.24 amps,100.00%,1035.00 ms,2025-11-27T18:00:05.144426,2025-11-27T18:11:00.324929
manda01,64,PRACTICE2,loudness,1,d,d,1,,0.700 amps,334.00 amps,1.000 amps,0.392 amps,0.20 amps,100.00%,1715.00 ms,2025-11-27T18:00:05.144426,2025-11-27T18:11:08.449920
manda01,65,PRACTICE2,loudness,1,k,d,0,response_error,0.750 amps,400.60 amps,1.000 amps,0.484 amps,0.17 amps,80.00%,790.00 ms,2025-11-27T18:00:05.144426,2025-11-27T18:11:15.327977
