participant_id,trial_number,block,round,type,fixation_time,condition,version,difficulty,key_correct,hand,fixation_key_response,fixation_reaction_time_ms,stimulus_key_response,stimulus_reaction_time_ms,isi_key_response,isi_reaction_time_ms,correct,error_type,start_time,end_time
aaa,1,practice1_1,0,no_go,978,motor,1,22,,,,,,,,,True,,25/08/03 23:13:25,25/08/03 23:13:28
aaa,2,practice1_1,0,actual,1013,motor,1,13,v,left,,,v,318,,,True,,25/08/03 23:13:28,25/08/03 23:13:31
aaa,3,practice1_2,0,no_go,1197,motor,1,197,,,,,,,,,True,,25/08/03 23:13:32,25/08/03 23:13:35
aaa,4,practice1_2,0,actual,873,motor,1,127,v,left,,,,,,,False,no_response,25/08/03 23:13:35,25/08/03 23:13:37
aaa,5,practice1_1,0,no_go,978,motor,1,22,,,,,,,,,True,,25/08/03 23:13:38,25/08/03 23:13:41
aaa,6,practice1_1,0,actual,1013,motor,1,13,v,left,,,v,307,,,True,,25/08/03 23:13:41,25/08/03 23:13:43
aaa,7,practice1_2,0,no_go,1197,motor,1,197,,,,,,,,,True,,25/08/03 23:13:44,25/08/03 23:13:47
aaa,8,practice1_2,0,actual,873,motor,1,127,v,left,,,,,,,False,no_response,25/08/03 23:13:47,25/08/03 23:13:50
aaa,9,practice1_1,0,no_go,978,motor,1,22,,,,,,,,,True,,25/08/03 23:13:51,25/08/03 23:13:54
aaa,10,practice1_1,0,actual,1013,motor,1,13,v,left,,,v,378,,,True,,25/08/03 23:13:54,25/08/03 23:13:57
aaa,11,practice1_2,0,no_go,1197,motor,1,197,,,,,,,,,True,,25/08/03 23:13:58,25/08/03 23:14:01
aaa,12,practice1_2,0,actual,873,motor,1,127,v,left,,,v,315,,,True,,25/08/03 23:14:01,25/08/03 23:14:03
aaa,13,block1,0,actual,1099,motor,1,99,v,left,,,v,371,,,True,,25/08/03 23:14:05,25/08/03 23:14:07
aaa,14,block1,0,no_go,1032,motor,1,32,,,,,,,,,True,,25/08/03 23:14:07,25/08/03 23:14:08
aaa,15,practice2_1,0,no_go,1052,motor,1,52,,,,,,,,,True,,25/08/03 23:14:11,25/08/03 23:14:14
aaa,16,practice2_1,0,actual,1053,motor,1,53,m,right,,,m,295,,,True,,25/08/03 23:14:14,25/08/03 23:14:17
aaa,17,practice2_2,0,no_go,848,motor,1,152,,,,,,,,,True,,25/08/03 23:14:18,25/08/03 23:14:20
aaa,18,practice2_2,0,actual,1068,motor,1,68,m,right,,,m,490,,,True,,25/08/03 23:14:20,25/08/03 23:14:23
aaa,19,block2,0,actual,969,motor,1,31,m,right,,,m,453,,,True,,25/08/03 23:14:25,25/08/03 23:14:26
aaa,20,block2,0,no_go,941,motor,1,59,,,,,,,,,True,,25/08/03 23:14:26,25/08/03 23:14:28
aaa,21,practice3_1,0,actual,1181,sensorimotor,1,181,m,right,,,,,,,False,no_response,25/08/03 23:14:33,25/08/03 23:14:36
aaa,22,practice3_1,0,actual,1177,sensorimotor,1,177,v,left,,,m,387,,,False,incorrect_response,25/08/03 23:14:36,25/08/03 23:14:39
aaa,23,practice3_1,0,no_go,993,sensorimotor,1,7,,,,,,,,,True,,25/08/03 23:14:39,25/08/03 23:14:42
aaa,24,practice3_2,0,actual,829,sensorimotor,1,171,m,right,,,m,487,,,True,,25/08/03 23:14:44,25/08/03 23:14:46
aaa,25,practice3_2,0,no_go,954,sensorimotor,1,46,,,,,,,,,True,,25/08/03 23:14:46,25/08/03 23:14:49
aaa,26,practice3_2,0,actual,963,sensorimotor,1,37,v,left,,,v,273,,,True,,25/08/03 23:14:49,25/08/03 23:14:52
aaa,27,practice3_1,0,actual,1181,sensorimotor,1,181,m,right,,,m,438,,,True,,25/08/03 23:14:53,25/08/03 23:14:56
aaa,28,practice3_1,0,actual,1177,sensorimotor,1,177,v,left,,,v,384,,,True,,25/08/03 23:14:56,25/08/03 23:14:59
aaa,29,practice3_1,0,no_go,993,sensorimotor,1,7,,,,,,,,,True,,25/08/03 23:14:59,25/08/03 23:15:01
aaa,30,practice3_2,0,actual,829,sensorimotor,1,171,m,right,,,m,439,,,True,,25/08/03 23:15:02,25/08/03 23:15:05
aaa,31,practice3_2,0,no_go,954,sensorimotor,1,46,,,,,,,,,True,,25/08/03 23:15:05,25/08/03 23:15:08
aaa,32,practice3_2,0,actual,963,sensorimotor,1,37,v,left,,,v,300,,,True,,25/08/03 23:15:08,25/08/03 23:15:10
aaa,33,block3,0,actual,1097,sensorimotor,1,97,v,left,,,v,421,,,True,,25/08/03 23:15:12,25/08/03 23:15:13
aaa,34,block3,0,actual,1028,sensorimotor,1,28,m,right,,,m,288,,,True,,25/08/03 23:15:13,25/08/03 23:15:15
aaa,35,block3,0,no_go,1034,sensorimotor,1,34,,,,,,,,,True,,25/08/03 23:15:15,25/08/03 23:15:17
aaa,36,block4,0,no_go,1094,sensorimotor,1,94,,,,,,,,,True,,25/08/03 23:15:23,25/08/03 23:15:25
aaa,37,block4,0,actual,1008,sensorimotor,1,8,m,right,,,m,275,,,True,,25/08/03 23:15:25,25/08/03 23:15:27
aaa,38,block4,0,actual,1006,sensorimotor,1,6,v,left,,,v,297,,,True,,25/08/03 23:15:27,25/08/03 23:15:29
aaa,39,practice4_1,0,actual,1099,contextual,1,99,m,right,,,v,687,,,False,incorrect_response,25/08/03 23:15:46,25/08/03 23:15:49
aaa,40,practice4_1,0,no_go,920,contextual,1,80,,,,,,,,,True,,25/08/03 23:15:49,25/08/03 23:15:52
aaa,41,practice4_2,0,actual,1151,contextual,1,151,m,right,,,,,32,139,False,delay_error,25/08/03 23:15:54,25/08/03 23:15:58
aaa,42,practice4_2,0,no_go,1001,contextual,1,1,,,,,,,,,True,,25/08/03 23:15:58,25/08/03 23:16:01
aaa,43,practice4_1,0,actual,1099,contextual,1,99,m,right,,,m,739,,,True,,25/08/03 23:16:03,25/08/03 23:16:06
aaa,44,practice4_1,0,no_go,920,contextual,1,80,,,,,,,,,True,,25/08/03 23:16:06,25/08/03 23:16:10
aaa,45,practice4_2,0,actual,1151,contextual,1,151,m,right,,,v,310,,,False,incorrect_response,25/08/03 23:16:12,25/08/03 23:16:16
aaa,46,practice4_2,0,no_go,1001,contextual,1,1,,,,,,,,,True,,25/08/03 23:16:16,25/08/03 23:16:19
aaa,47,practice4_1,0,actual,1099,contextual,1,99,m,right,,,m,662,,,True,,25/08/03 23:16:20,25/08/03 23:16:24
aaa,48,practice4_1,0,no_go,920,contextual,1,80,,,,,,,,,True,,25/08/03 23:16:24,25/08/03 23:16:27
aaa,49,practice4_2,0,actual,1151,contextual,1,151,m,right,,,m,324,,,True,,25/08/03 23:16:28,25/08/03 23:16:31
aaa,50,practice4_2,0,no_go,1001,contextual,1,1,,,,,,,,,True,,25/08/03 23:16:31,25/08/03 23:16:35
aaa,51,block5,0,actual,946,contextual,1,54,v,left,,,v,706,,,True,,25/08/03 23:16:40,25/08/03 23:16:42
aaa,52,block5,0,no_go,966,contextual,1,34,,,,,,,,,True,,25/08/03 23:16:42,25/08/03 23:16:45
aaa,53,block5,0,no_go,805,contextual,1,195,,,,,,,,,True,,25/08/03 23:16:46,25/08/03 23:16:49
aaa,54,block5,0,actual,830,contextual,1,170,v,left,,,v,654,,,True,,25/08/03 23:16:49,25/08/03 23:16:51
