participant_id,trial_number,block,round,type,fixation_time,condition,version,difficulty,key_correct,hand,fixation_key_response,fixation_reaction_time_ms,stimulus_key_response,stimulus_reaction_time_ms,isi_key_response,isi_reaction_time_ms,correct,error_type,start_time,end_time
www,1,practice1_1,0,no_go,1027,motor,1,27,,,,,,,,,True,,25/08/03 23:05:56,25/08/03 23:05:59
www,2,practice1_1,0,actual,1139,motor,1,139,v,left,,,v,324,,,True,,25/08/03 23:05:59,25/08/03 23:06:02
www,3,practice1_2,0,actual,1166,motor,1,166,v,left,,,v,433,,,True,,25/08/03 23:06:03,25/08/03 23:06:06
www,4,practice1_2,0,no_go,1091,motor,1,91,,,,,,,,,True,,25/08/03 23:06:06,25/08/03 23:06:09
www,5,block1,0,no_go,1114,motor,1,114,,,,,,,,,True,,25/08/03 23:06:10,25/08/03 23:06:12
www,6,block1,0,actual,1094,motor,1,94,v,left,,,v,315,,,True,,25/08/03 23:06:12,25/08/03 23:06:14
www,7,practice2_1,0,no_go,1155,motor,1,155,,,,,,,,,True,,25/08/03 23:06:17,25/08/03 23:06:20
www,8,practice2_1,0,actual,1115,motor,1,115,m,right,,,,,,,False,no_response,25/08/03 23:06:20,25/08/03 23:06:22
www,9,practice2_2,0,actual,1098,motor,1,98,m,right,,,m,299,,,True,,25/08/03 23:06:23,25/08/03 23:06:26
www,10,practice2_2,0,no_go,1119,motor,1,119,,,,,,,,,True,,25/08/03 23:06:26,25/08/03 23:06:29
www,11,practice2_1,0,no_go,1155,motor,1,155,,,,,,,,,True,,25/08/03 23:06:30,25/08/03 23:06:33
www,12,practice2_1,0,actual,1115,motor,1,115,m,right,,,m,340,,,True,,25/08/03 23:06:33,25/08/03 23:06:36
www,13,practice2_2,0,actual,1098,motor,1,98,m,right,,,m,469,,,True,,25/08/03 23:06:37,25/08/03 23:06:40
www,14,practice2_2,0,no_go,1119,motor,1,119,,,,,,,,,True,,25/08/03 23:06:40,25/08/03 23:06:43
www,15,block2,0,actual,944,motor,1,56,m,right,,,v,437,m,137,False,incorrect_response,25/08/03 23:06:44,25/08/03 23:06:46
www,16,block2,0,no_go,949,motor,1,51,,,,,,,,,True,,25/08/03 23:06:46,25/08/03 23:06:48
www,17,practice3_1,0,no_go,992,sensorimotor,1,8,,,,,,,,,True,,25/08/03 23:06:51,25/08/03 23:06:54
www,18,practice3_1,0,actual,1091,sensorimotor,1,91,v,left,,,v,386,,,True,,25/08/03 23:06:54,25/08/03 23:06:57
www,19,practice3_1,0,actual,941,sensorimotor,1,59,m,right,,,m,269,,,True,,25/08/03 23:06:57,25/08/03 23:07:00
www,20,practice3_2,0,actual,1094,sensorimotor,1,94,m,right,,,m,485,,,True,,25/08/03 23:07:01,25/08/03 23:07:04
www,21,practice3_2,0,no_go,968,sensorimotor,1,32,,,,,,,,,True,,25/08/03 23:07:04,25/08/03 23:07:06
www,22,practice3_2,0,actual,809,sensorimotor,1,191,v,left,,,v,344,,,True,,25/08/03 23:07:06,25/08/03 23:07:09
www,23,block3,0,actual,1191,sensorimotor,1,191,m,right,,,m,468,,,True,,25/08/03 23:07:10,25/08/03 23:07:12
www,24,block3,0,no_go,942,sensorimotor,1,58,,,,,,,,,True,,25/08/03 23:07:12,25/08/03 23:07:14
www,25,block3,0,actual,992,sensorimotor,1,8,v,left,,,v,229,,,True,,25/08/03 23:07:14,25/08/03 23:07:16
www,26,block4,0,actual,839,sensorimotor,1,161,v,left,,,m,375,v,151,False,incorrect_response,25/08/03 23:07:18,25/08/03 23:07:20
www,27,block4,0,actual,1176,sensorimotor,1,176,m,right,,,m,338,,,True,,25/08/03 23:07:20,25/08/03 23:07:22
www,28,block4,0,no_go,998,sensorimotor,1,2,,,,,,,,,True,,25/08/03 23:07:22,25/08/03 23:07:24
www,29,practice4_1,0,actual,1034,contextual,1,34,v,left,,,,,,,False,no_response,25/08/03 23:07:30,25/08/03 23:07:33
www,30,practice4_1,0,no_go,938,contextual,1,62,,,,,,,,,True,,25/08/03 23:07:33,25/08/03 23:07:37
www,31,practice4_2,0,no_go,1041,contextual,1,41,,,,,,,,,True,,25/08/03 23:07:50,25/08/03 23:07:53
www,32,practice4_2,0,actual,815,contextual,1,185,v,left,,,,,,,False,no_response,25/08/03 23:07:53,25/08/03 23:07:56
www,33,practice4_1,0,actual,1034,contextual,1,34,v,left,,,,,,,False,no_response,25/08/03 23:07:59,25/08/03 23:08:02
www,34,practice4_1,0,no_go,938,contextual,1,62,,,,,,,,,True,,25/08/03 23:08:02,25/08/03 23:08:06
www,35,practice4_2,0,no_go,1041,contextual,1,41,,,,,,,,,True,,25/08/03 23:08:07,25/08/03 23:08:10
www,36,practice4_2,0,actual,815,contextual,1,185,v,left,,,v,675,,,True,,25/08/03 23:08:10,25/08/03 23:08:13
www,37,practice4_1,0,actual,1034,contextual,1,34,v,left,,,v,726,,,True,,25/08/03 23:08:15,25/08/03 23:08:18
www,38,practice4_1,0,no_go,938,contextual,1,62,,,,,,,,,True,,25/08/03 23:08:18,25/08/03 23:08:22
www,39,practice4_2,0,no_go,1041,contextual,1,41,,,,,,,,,True,,25/08/03 23:08:25,25/08/03 23:08:28
www,40,practice4_2,0,actual,815,contextual,1,185,v,left,,,v,984,,,True,,25/08/03 23:08:28,25/08/03 23:08:31
www,41,block5,0,actual,882,contextual,1,118,v,left,,,,,,,False,no_response,25/08/03 23:08:33,25/08/03 23:08:35
www,42,block5,0,no_go,1013,contextual,1,13,,,,,,,,,True,,25/08/03 23:08:35,25/08/03 23:08:37
www,43,block5,0,no_go,904,contextual,1,96,,,,,,,,,True,,25/08/03 23:08:41,25/08/03 23:08:43
www,44,block5,0,actual,1099,contextual,1,99,m,right,,,m,946,,,True,,25/08/03 23:08:43,25/08/03 23:08:45
