participant_id,version,trial_number,phase,condition,difficulty,correct,reaction time,stimulus_path,start_time,end_time
final_test,2,1,mapping practice,mapping practice,practice,True,642,/Users/alvinm/Documents/Documents/Academic/Research/CognAC/cerebellum backup/gss/resources/stimuli/mapping_practice/circle_yellow.jpg,2025-12-05T14:22:33.669517,2025-12-05T14:22:43.690070
final_test,2,2,mapping practice,mapping practice,practice,True,554,/Users/alvinm/Documents/Documents/Academic/Research/CognAC/cerebellum backup/gss/resources/stimuli/mapping_practice/circle_blue.jpg,2025-12-05T14:22:33.669517,2025-12-05T14:22:44.760924
final_test,2,3,mapping practice,mapping practice,practice,True,432,/Users/alvinm/Documents/Documents/Academic/Research/CognAC/cerebellum backup/gss/resources/stimuli/mapping_practice/circle_yellow.jpg,2025-12-05T14:22:33.669517,2025-12-05T14:22:45.710963
final_test,2,4,mapping practice,mapping practice,practice,True,458,/Users/alvinm/Documents/Documents/Academic/Research/CognAC/cerebellum backup/gss/resources/stimuli/mapping_practice/circle_green.jpg,2025-12-05T14:22:33.669517,2025-12-05T14:22:46.680013
final_test,2,5,mapping practice,mapping practice,practice,True,412,/Users/alvinm/Documents/Documents/Academic/Research/CognAC/cerebellum backup/gss/resources/stimuli/mapping_practice/circle_red.jpg,2025-12-05T14:22:33.669517,2025-12-05T14:22:47.609149
final_test,2,6,mapping practice,mapping practice,practice,True,539,/Users/alvinm/Documents/Documents/Academic/Research/CognAC/cerebellum backup/gss/resources/stimuli/mapping_practice/circle_blue.jpg,2025-12-05T14:22:33.669517,2025-12-05T14:22:48.663671
final_test,2,7,mapping practice,mapping practice,practice,True,543,/Users/alvinm/Documents/Documents/Academic/Research/CognAC/cerebellum backup/gss/resources/stimuli/mapping_practice/circle_yellow.jpg,2025-12-05T14:22:33.669517,2025-12-05T14:22:49.721084
final_test,2,8,mapping practice,mapping practice,practice,True,495,/Users/alvinm/Documents/Documents/Academic/Research/CognAC/cerebellum backup/gss/resources/stimuli/mapping_practice/circle_blue.jpg,2025-12-05T14:22:33.669517,2025-12-05T14:22:50.730001
final_test,2,9,mapping practice,mapping practice,practice,True,716,/Users/alvinm/Documents/Documents/Academic/Research/CognAC/cerebellum backup/gss/resources/stimuli/mapping_practice/circle_blue.jpg,2025-12-05T14:22:33.669517,2025-12-05T14:22:54.028953
final_test,2,10,mapping practice,mapping practice,practice,True,619,/Users/alvinm/Documents/Documents/Academic/Research/CognAC/cerebellum backup/gss/resources/stimuli/mapping_practice/circle_yellow.jpg,2025-12-05T14:22:33.669517,2025-12-05T14:22:55.165154
final_test,2,11,mapping practice,mapping practice,practice,True,522,/Users/alvinm/Documents/Documents/Academic/Research/CognAC/cerebellum backup/gss/resources/stimuli/mapping_practice/circle_red.jpg,2025-12-05T14:22:33.669517,2025-12-05T14:22:56.201690
final_test,2,12,stroop practice,stroop practice,practice,True,874,/Users/alvinm/Documents/Documents/Academic/Research/CognAC/cerebellum backup/gss/resources/stimuli/stroop_practice/green_y.png,2025-12-05T14:22:33.669517,2025-12-05T14:23:06.080713
final_test,2,13,stroop practice,stroop practice,practice,True,498,/Users/alvinm/Documents/Documents/Academic/Research/CognAC/cerebellum backup/gss/resources/stimuli/stroop_practice/blue_b.png,2025-12-05T14:22:33.669517,2025-12-05T14:23:07.079359
final_test,2,14,stroop practice,stroop practice,practice,True,445,/Users/alvinm/Documents/Documents/Academic/Research/CognAC/cerebellum backup/gss/resources/stimuli/stroop_practice/green_r.png,2025-12-05T14:22:33.669517,2025-12-05T14:23:08.029046
final_test,2,15,stroop practice,stroop practice,practice,True,580,/Users/alvinm/Documents/Documents/Academic/Research/CognAC/cerebellum backup/gss/resources/stimuli/stroop_practice/red_g.png,2025-12-05T14:22:33.669517,2025-12-05T14:23:09.126730
final_test,2,16,stroop practice,stroop practice,practice,True,7,/Users/alvinm/Documents/Documents/Academic/Research/CognAC/cerebellum backup/gss/resources/stimuli/stroop_practice/yellow_r.png,2025-12-05T14:22:33.669517,2025-12-05T14:23:11.256220
final_test,2,17,stroop practice,stroop practice,practice,False,828,/Users/alvinm/Documents/Documents/Academic/Research/CognAC/cerebellum backup/gss/resources/stimuli/stroop_practice/blue_y.png,2025-12-05T14:22:33.669517,2025-12-05T14:23:12.593595
final_test,2,18,stroop practice,stroop practice,practice,True,577,/Users/alvinm/Documents/Documents/Academic/Research/CognAC/cerebellum backup/gss/resources/stimuli/stroop_practice/yellow_r.png,2025-12-05T14:22:33.669517,2025-12-05T14:23:13.687320
final_test,2,19,stroop practice,stroop practice,practice,False,743,/Users/alvinm/Documents/Documents/Academic/Research/CognAC/cerebellum backup/gss/resources/stimuli/stroop_practice/red_y.png,2025-12-05T14:22:33.669517,2025-12-05T14:23:14.943708
final_test,2,20,stroop practice,stroop practice,practice,True,511,/Users/alvinm/Documents/Documents/Academic/Research/CognAC/cerebellum backup/gss/resources/stimuli/stroop_practice/yellow_b.png,2025-12-05T14:22:33.669517,2025-12-05T14:23:15.969426
final_test,2,21,stroop practice,stroop practice,practice,False,557,/Users/alvinm/Documents/Documents/Academic/Research/CognAC/cerebellum backup/gss/resources/stimuli/stroop_practice/red_r.png,2025-12-05T14:22:33.669517,2025-12-05T14:23:17.036786
final_test,2,22,stroop practice,stroop practice,practice,True,600,/Users/alvinm/Documents/Documents/Academic/Research/CognAC/cerebellum backup/gss/resources/stimuli/stroop_practice/yellow_g.png,2025-12-05T14:22:33.669517,2025-12-05T14:23:18.142110
final_test,2,23,stroop practice,stroop practice,practice,True,524,/Users/alvinm/Documents/Documents/Academic/Research/CognAC/cerebellum backup/gss/resources/stimuli/stroop_practice/blue_y.png,2025-12-05T14:22:33.669517,2025-12-05T14:23:19.173437
final_test,2,24,gss practice,gss practice,accuracy,True,605,/Users/alvinm/Documents/Documents/Academic/Research/CognAC/cerebellum backup/gss/resources/stimuli/stroop_practice/blue_g.png,2025-12-05T14:22:33.669517,2025-12-05T14:23:26.200776
final_test,2,25,gss practice,gss practice,accuracy,True,496,/Users/alvinm/Documents/Documents/Academic/Research/CognAC/cerebellum backup/gss/resources/stimuli/stroop_practice/yellow_b.png,2025-12-05T14:22:33.669517,2025-12-05T14:23:27.214531
final_test,2,26,gss practice,gss practice,accuracy,True,608,/Users/alvinm/Documents/Documents/Academic/Research/CognAC/cerebellum backup/gss/resources/stimuli/stroop_practice/green_y.png,2025-12-05T14:22:33.669517,2025-12-05T14:23:28.337878
final_test,2,27,gss practice,gss practice,accuracy,True,676,/Users/alvinm/Documents/Documents/Academic/Research/CognAC/cerebellum backup/gss/resources/stimuli/stroop_practice/yellow_b.png,2025-12-05T14:22:33.669517,2025-12-05T14:23:29.517191
final_test,2,28,gss practice,gss practice,accuracy,True,623,/Users/alvinm/Documents/Documents/Academic/Research/CognAC/cerebellum backup/gss/resources/stimuli/stroop_practice/green_g.png,2025-12-05T14:22:33.669517,2025-12-05T14:23:30.656222
final_test,2,29,gss practice,gss practice,accuracy,True,770,/Users/alvinm/Documents/Documents/Academic/Research/CognAC/cerebellum backup/gss/resources/stimuli/stroop_practice/red_b.png,2025-12-05T14:22:33.669517,2025-12-05T14:23:31.942081
final_test,2,30,gss practice,gss practice,accuracy,True,541,/Users/alvinm/Documents/Documents/Academic/Research/CognAC/cerebellum backup/gss/resources/stimuli/stroop_practice/green_r.png,2025-12-05T14:22:33.669517,2025-12-05T14:23:33.001734
final_test,2,31,gss practice,gss practice,accuracy,True,409,/Users/alvinm/Documents/Documents/Academic/Research/CognAC/cerebellum backup/gss/resources/stimuli/stroop_practice/yellow_b.png,2025-12-05T14:22:33.669517,2025-12-05T14:23:35.874818
final_test,2,32,gss practice,gss practice,accuracy,True,889,/Users/alvinm/Documents/Documents/Academic/Research/CognAC/cerebellum backup/gss/resources/stimuli/stroop_practice/blue_y.png,2025-12-05T14:22:33.669517,2025-12-05T14:23:37.280453
final_test,2,33,gss practice,gss practice,accuracy,True,663,/Users/alvinm/Documents/Documents/Academic/Research/CognAC/cerebellum backup/gss/resources/stimuli/stroop_practice/green_g.png,2025-12-05T14:22:33.669517,2025-12-05T14:23:38.448142
final_test,2,34,gss practice,gss practice,accuracy,True,590,/Users/alvinm/Documents/Documents/Academic/Research/CognAC/cerebellum backup/gss/resources/stimuli/stroop_practice/red_r.png,2025-12-05T14:22:33.669517,2025-12-05T14:23:39.553901
final_test,2,35,gss practice,gss practice,accuracy,True,1067,/Users/alvinm/Documents/Documents/Academic/Research/CognAC/cerebellum backup/gss/resources/stimuli/stroop_practice/yellow_b.png,2025-12-05T14:22:33.669517,2025-12-05T14:23:41.131110
final_test,2,36,gss practice,gss practice,accuracy,True,629,/Users/alvinm/Documents/Documents/Academic/Research/CognAC/cerebellum backup/gss/resources/stimuli/stroop_practice/blue_g.png,2025-12-05T14:22:33.669517,2025-12-05T14:23:42.275165
final_test,2,37,gss practice,gss practice,accuracy,True,657,/Users/alvinm/Documents/Documents/Academic/Research/CognAC/cerebellum backup/gss/resources/stimuli/stroop_practice/yellow_y.png,2025-12-05T14:22:33.669517,2025-12-05T14:23:45.588674
final_test,2,38,gss practice,gss practice,accuracy,False,605,/Users/alvinm/Documents/Documents/Academic/Research/CognAC/cerebellum backup/gss/resources/stimuli/stroop_practice/green_b.png,2025-12-05T14:22:33.669517,2025-12-05T14:23:46.697662
final_test,2,39,gss practice,gss practice,accuracy,True,803,/Users/alvinm/Documents/Documents/Academic/Research/CognAC/cerebellum backup/gss/resources/stimuli/stroop_practice/red_g.png,2025-12-05T14:22:33.669517,2025-12-05T14:23:48.015719
final_test,2,40,gss practice,gss practice,speed,True,741,/Users/alvinm/Documents/Documents/Academic/Research/CognAC/cerebellum backup/gss/resources/stimuli/stroop_practice/yellow_r.png,2025-12-05T14:22:33.669517,2025-12-05T14:23:52.692853
final_test,2,41,gss practice,gss practice,speed,True,529,/Users/alvinm/Documents/Documents/Academic/Research/CognAC/cerebellum backup/gss/resources/stimuli/stroop_practice/red_g.png,2025-12-05T14:22:33.669517,2025-12-05T14:23:53.722461
final_test,2,42,gss practice,gss practice,speed,True,791,/Users/alvinm/Documents/Documents/Academic/Research/CognAC/cerebellum backup/gss/resources/stimuli/stroop_practice/green_b.png,2025-12-05T14:22:33.669517,2025-12-05T14:23:55.015828
final_test,2,43,gss practice,gss practice,speed,True,475,/Users/alvinm/Documents/Documents/Academic/Research/CognAC/cerebellum backup/gss/resources/stimuli/stroop_practice/blue_y.png,2025-12-05T14:22:33.669517,2025-12-05T14:23:56.006990
final_test,2,44,gss practice,gss practice,speed,False,823,/Users/alvinm/Documents/Documents/Academic/Research/CognAC/cerebellum backup/gss/resources/stimuli/stroop_practice/green_r.png,2025-12-05T14:22:33.669517,2025-12-05T14:23:57.340543
final_test,2,45,gss practice,gss practice,speed,True,526,/Users/alvinm/Documents/Documents/Academic/Research/CognAC/cerebellum backup/gss/resources/stimuli/stroop_practice/yellow_b.png,2025-12-05T14:22:33.669517,2025-12-05T14:23:58.385414
final_test,2,46,gss practice,gss practice,speed,True,566,/Users/alvinm/Documents/Documents/Academic/Research/CognAC/cerebellum backup/gss/resources/stimuli/stroop_practice/yellow_y.png,2025-12-05T14:22:33.669517,2025-12-05T14:24:01.630455
final_test,2,47,gss practice,gss practice,speed,True,574,/Users/alvinm/Documents/Documents/Academic/Research/CognAC/cerebellum backup/gss/resources/stimuli/stroop_practice/blue_g.png,2025-12-05T14:22:33.669517,2025-12-05T14:24:02.707373
final_test,2,48,gss practice,gss practice,speed,True,429,/Users/alvinm/Documents/Documents/Academic/Research/CognAC/cerebellum backup/gss/resources/stimuli/stroop_practice/yellow_r.png,2025-12-05T14:22:33.669517,2025-12-05T14:24:03.640896
final_test,2,49,gss practice,gss practice,speed,True,460,/Users/alvinm/Documents/Documents/Academic/Research/CognAC/cerebellum backup/gss/resources/stimuli/stroop_practice/red_b.png,2025-12-05T14:22:33.669517,2025-12-05T14:24:04.605304
final_test,2,50,gss practice,gss practice,speed,True,440,/Users/alvinm/Documents/Documents/Academic/Research/CognAC/cerebellum backup/gss/resources/stimuli/stroop_practice/green_b.png,2025-12-05T14:22:33.669517,2025-12-05T14:24:07.524654
final_test,2,51,gss practice,gss practice,speed,False,397,/Users/alvinm/Documents/Documents/Academic/Research/CognAC/cerebellum backup/gss/resources/stimuli/stroop_practice/red_g.png,2025-12-05T14:22:33.669517,2025-12-05T14:24:08.436700
final_test,2,52,gss practice,gss practice,speed,False,460,/Users/alvinm/Documents/Documents/Academic/Research/CognAC/cerebellum backup/gss/resources/stimuli/stroop_practice/blue_y.png,2025-12-05T14:22:33.669517,2025-12-05T14:24:09.398280
final_test,2,53,gss practice,gss practice,speed,True,415,/Users/alvinm/Documents/Documents/Academic/Research/CognAC/cerebellum backup/gss/resources/stimuli/stroop_practice/red_r.png,2025-12-05T14:22:33.669517,2025-12-05T14:24:10.330689
final_test,2,54,gss practice,gss practice,speed,False,446,/Users/alvinm/Documents/Documents/Academic/Research/CognAC/cerebellum backup/gss/resources/stimuli/stroop_practice/blue_g.png,2025-12-05T14:22:33.669517,2025-12-05T14:24:11.290677
final_test,2,55,gss practice,gss practice,accuracy,True,960,/Users/alvinm/Documents/Documents/Academic/Research/CognAC/cerebellum backup/gss/resources/stimuli/stroop_practice/yellow_r.png,2025-12-05T14:22:33.669517,2025-12-05T14:24:16.175863
final_test,2,56,gss practice,gss practice,accuracy,True,999,/Users/alvinm/Documents/Documents/Academic/Research/CognAC/cerebellum backup/gss/resources/stimuli/stroop_practice/green_y.png,2025-12-05T14:22:33.669517,2025-12-05T14:24:17.679785
final_test,2,57,gss practice,gss practice,speed,True,591,/Users/alvinm/Documents/Documents/Academic/Research/CognAC/cerebellum backup/gss/resources/stimuli/stroop_practice/blue_y.png,2025-12-05T14:22:33.669517,2025-12-05T14:24:21.002865
final_test,2,58,gss practice,gss practice,speed,True,379,/Users/alvinm/Documents/Documents/Academic/Research/CognAC/cerebellum backup/gss/resources/stimuli/stroop_practice/green_g.png,2025-12-05T14:22:33.669517,2025-12-05T14:24:21.898524
final_test,2,59,gss practice,gss practice,speed,False,493,/Users/alvinm/Documents/Documents/Academic/Research/CognAC/cerebellum backup/gss/resources/stimuli/stroop_practice/blue_b.png,2025-12-05T14:22:33.669517,2025-12-05T14:24:22.903286
final_test,2,60,gss practice,gss practice,speed,True,642,/Users/alvinm/Documents/Documents/Academic/Research/CognAC/cerebellum backup/gss/resources/stimuli/stroop_practice/yellow_y.png,2025-12-05T14:22:33.669517,2025-12-05T14:24:24.059953
final_test,2,61,gss practice,gss practice,accuracy,False,549,/Users/alvinm/Documents/Documents/Academic/Research/CognAC/cerebellum backup/gss/resources/stimuli/stroop_practice/yellow_g.png,2025-12-05T14:22:33.669517,2025-12-05T14:24:27.194855
final_test,2,62,gss practice,gss practice,accuracy,False,311,/Users/alvinm/Documents/Documents/Academic/Research/CognAC/cerebellum backup/gss/resources/stimuli/stroop_practice/green_y.png,2025-12-05T14:22:33.669517,2025-12-05T14:24:28.018039
final_test,2,63,gss practice,gss practice,accuracy,True,215,/Users/alvinm/Documents/Documents/Academic/Research/CognAC/cerebellum backup/gss/resources/stimuli/stroop_practice/red_r.png,2025-12-05T14:22:33.669517,2025-12-05T14:24:28.747752
final_test,2,64,gss practice,gss practice,accuracy,False,507,/Users/alvinm/Documents/Documents/Academic/Research/CognAC/cerebellum backup/gss/resources/stimuli/stroop_practice/blue_y.png,2025-12-05T14:22:33.669517,2025-12-05T14:24:29.756985
final_test,2,65,gss practice,gss practice,accuracy,False,246,/Users/alvinm/Documents/Documents/Academic/Research/CognAC/cerebellum backup/gss/resources/stimuli/stroop_practice/green_g.png,2025-12-05T14:22:33.669517,2025-12-05T14:24:30.515223
final_test,2,66,gss practice,gss practice,accuracy,False,201,/Users/alvinm/Documents/Documents/Academic/Research/CognAC/cerebellum backup/gss/resources/stimuli/stroop_practice/red_y.png,2025-12-05T14:22:33.669517,2025-12-05T14:24:31.232066
final_test,2,67,gss practice,gss practice,speed,True,634,/Users/alvinm/Documents/Documents/Academic/Research/CognAC/cerebellum backup/gss/resources/stimuli/stroop_practice/yellow_y.png,2025-12-05T14:22:33.669517,2025-12-05T14:24:40.652720
final_test,2,68,gss practice,gss practice,speed,True,518,/Users/alvinm/Documents/Documents/Academic/Research/CognAC/cerebellum backup/gss/resources/stimuli/stroop_practice/green_g.png,2025-12-05T14:22:33.669517,2025-12-05T14:24:41.172496
final_test,2,69,gss practice,gss practice,speed,True,790,/Users/alvinm/Documents/Documents/Academic/Research/CognAC/cerebellum backup/gss/resources/stimuli/stroop_practice/blue_y.png,2025-12-05T14:22:33.669517,2025-12-05T14:24:41.963457
final_test,2,70,gss practice,gss practice,speed,True,616,/Users/alvinm/Documents/Documents/Academic/Research/CognAC/cerebellum backup/gss/resources/stimuli/stroop_practice/red_r.png,2025-12-05T14:22:33.669517,2025-12-05T14:24:42.579870
final_test,2,71,gss practice,gss practice,speed,True,644,/Users/alvinm/Documents/Documents/Academic/Research/CognAC/cerebellum backup/gss/resources/stimuli/stroop_practice/blue_y.png,2025-12-05T14:22:33.669517,2025-12-05T14:24:45.745628
final_test,2,72,gss practice,gss practice,speed,True,548,/Users/alvinm/Documents/Documents/Academic/Research/CognAC/cerebellum backup/gss/resources/stimuli/stroop_practice/green_g.png,2025-12-05T14:22:33.669517,2025-12-05T14:24:46.295617
final_test,2,73,gss practice,gss practice,speed,False,326,/Users/alvinm/Documents/Documents/Academic/Research/CognAC/cerebellum backup/gss/resources/stimuli/stroop_practice/blue_y.png,2025-12-05T14:22:33.669517,2025-12-05T14:24:46.623652
final_test,2,74,gss practice,gss practice,speed,True,1099,/Users/alvinm/Documents/Documents/Academic/Research/CognAC/cerebellum backup/gss/resources/stimuli/stroop_practice/green_b.png,2025-12-05T14:22:33.669517,2025-12-05T14:24:47.724915
final_test,2,75,gss practice,gss practice,speed,False,488,/Users/alvinm/Documents/Documents/Academic/Research/CognAC/cerebellum backup/gss/resources/stimuli/stroop_practice/red_r.png,2025-12-05T14:22:33.669517,2025-12-05T14:24:48.214269
final_test,2,76,gss practice,gss practice,speed,False,208,/Users/alvinm/Documents/Documents/Academic/Research/CognAC/cerebellum backup/gss/resources/stimuli/stroop_practice/green_b.png,2025-12-05T14:22:33.669517,2025-12-05T14:24:48.423480
final_test,2,77,gss practice,gss practice,speed,True,483,/Users/alvinm/Documents/Documents/Academic/Research/CognAC/cerebellum backup/gss/resources/stimuli/stroop_practice/yellow_g.png,2025-12-05T14:22:33.669517,2025-12-05T14:24:48.908787
final_test,2,78,gss practice,gss practice,accuracy,False,680,/Users/alvinm/Documents/Documents/Academic/Research/CognAC/cerebellum backup/gss/resources/stimuli/stroop_practice/green_r.png,2025-12-05T14:22:33.669517,2025-12-05T14:24:52.227482
final_test,2,79,gss practice,gss practice,accuracy,False,747,/Users/alvinm/Documents/Documents/Academic/Research/CognAC/cerebellum backup/gss/resources/stimuli/stroop_practice/yellow_y.png,2025-12-05T14:22:33.669517,2025-12-05T14:24:52.975496
final_test,2,80,gss practice,gss practice,accuracy,True,603,/Users/alvinm/Documents/Documents/Academic/Research/CognAC/cerebellum backup/gss/resources/stimuli/stroop_practice/blue_g.png,2025-12-05T14:22:33.669517,2025-12-05T14:24:53.579724
final_test,2,81,gss practice,gss practice,accuracy,True,485,/Users/alvinm/Documents/Documents/Academic/Research/CognAC/cerebellum backup/gss/resources/stimuli/stroop_practice/green_y.png,2025-12-05T14:22:33.669517,2025-12-05T14:24:54.065640
final_test,2,82,gss practice,gss practice,accuracy,True,456,/Users/alvinm/Documents/Documents/Academic/Research/CognAC/cerebellum backup/gss/resources/stimuli/stroop_practice/red_g.png,2025-12-05T14:22:33.669517,2025-12-05T14:24:54.522701
final_test,2,83,gss practice,gss practice,accuracy,False,505,/Users/alvinm/Documents/Documents/Academic/Research/CognAC/cerebellum backup/gss/resources/stimuli/stroop_practice/yellow_g.png,2025-12-05T14:22:33.669517,2025-12-05T14:24:57.076823
final_test,2,84,gss practice,gss practice,accuracy,True,651,/Users/alvinm/Documents/Documents/Academic/Research/CognAC/cerebellum backup/gss/resources/stimuli/stroop_practice/blue_r.png,2025-12-05T14:22:33.669517,2025-12-05T14:24:57.729246
final_test,2,85,gss practice,gss practice,accuracy,True,508,/Users/alvinm/Documents/Documents/Academic/Research/CognAC/cerebellum backup/gss/resources/stimuli/stroop_practice/yellow_g.png,2025-12-05T14:22:33.669517,2025-12-05T14:24:58.238316
final_test,2,86,gss practice,gss practice,accuracy,True,422,/Users/alvinm/Documents/Documents/Academic/Research/CognAC/cerebellum backup/gss/resources/stimuli/stroop_practice/green_b.png,2025-12-05T14:22:33.669517,2025-12-05T14:24:58.661906
final_test,2,87,gss practice,gss practice,accuracy,True,551,/Users/alvinm/Documents/Documents/Academic/Research/CognAC/cerebellum backup/gss/resources/stimuli/stroop_practice/blue_r.png,2025-12-05T14:22:33.669517,2025-12-05T14:24:59.214754
final_test,2,88,gss practice,gss practice,accuracy,False,465,/Users/alvinm/Documents/Documents/Academic/Research/CognAC/cerebellum backup/gss/resources/stimuli/stroop_practice/red_b.png,2025-12-05T14:22:33.669517,2025-12-05T14:24:59.680238
final_test,2,89,gss practice,gss practice,speed,True,597,/Users/alvinm/Documents/Documents/Academic/Research/CognAC/cerebellum backup/gss/resources/stimuli/stroop_practice/blue_y.png,2025-12-05T14:22:33.669517,2025-12-05T14:25:02.768230
final_test,2,90,gss practice,gss practice,speed,True,534,/Users/alvinm/Documents/Documents/Academic/Research/CognAC/cerebellum backup/gss/resources/stimuli/stroop_practice/yellow_b.png,2025-12-05T14:22:33.669517,2025-12-05T14:25:03.302500
final_test,2,91,gss practice,gss practice,speed,True,541,/Users/alvinm/Documents/Documents/Academic/Research/CognAC/cerebellum backup/gss/resources/stimuli/stroop_practice/green_g.png,2025-12-05T14:22:33.669517,2025-12-05T14:25:03.844731
final_test,2,92,gss practice,gss practice,speed,False,698,/Users/alvinm/Documents/Documents/Academic/Research/CognAC/cerebellum backup/gss/resources/stimuli/stroop_practice/blue_y.png,2025-12-05T14:22:33.669517,2025-12-05T14:25:04.544899
final_test,2,93,gss practice,gss practice,speed,True,845,/Users/alvinm/Documents/Documents/Academic/Research/CognAC/cerebellum backup/gss/resources/stimuli/stroop_practice/green_g.png,2025-12-05T14:22:33.669517,2025-12-05T14:25:05.392034
final_test,2,94,gss practice,gss practice,speed,True,467,/Users/alvinm/Documents/Documents/Academic/Research/CognAC/cerebellum backup/gss/resources/stimuli/stroop_practice/blue_b.png,2025-12-05T14:22:33.669517,2025-12-05T14:25:05.860391
final_test,2,95,gss practice,gss practice,speed,False,455,/Users/alvinm/Documents/Documents/Academic/Research/CognAC/cerebellum backup/gss/resources/stimuli/stroop_practice/yellow_g.png,2025-12-05T14:22:33.669517,2025-12-05T14:25:06.316141
final_test,2,96,gss practice,gss practice,speed,False,300,/Users/alvinm/Documents/Documents/Academic/Research/CognAC/cerebellum backup/gss/resources/stimuli/stroop_practice/green_b.png,2025-12-05T14:22:33.669517,2025-12-05T14:25:06.617658
final_test,2,97,gss practice,gss practice,speed,True,226,/Users/alvinm/Documents/Documents/Academic/Research/CognAC/cerebellum backup/gss/resources/stimuli/stroop_practice/blue_g.png,2025-12-05T14:22:33.669517,2025-12-05T14:25:06.844317
final_test,2,98,gss practice,gss practice,speed,True,527,/Users/alvinm/Documents/Documents/Academic/Research/CognAC/cerebellum backup/gss/resources/stimuli/stroop_practice/yellow_r.png,2025-12-05T14:22:33.669517,2025-12-05T14:25:09.730071
final_test,2,99,gss practice,gss practice,speed,True,777,/Users/alvinm/Documents/Documents/Academic/Research/CognAC/cerebellum backup/gss/resources/stimuli/stroop_practice/green_b.png,2025-12-05T14:22:33.669517,2025-12-05T14:25:10.507487
final_test,2,100,gss practice,gss practice,speed,True,737,/Users/alvinm/Documents/Documents/Academic/Research/CognAC/cerebellum backup/gss/resources/stimuli/stroop_practice/blue_y.png,2025-12-05T14:22:33.669517,2025-12-05T14:25:11.245888
final_test,2,101,gss practice,gss practice,speed,True,633,/Users/alvinm/Documents/Documents/Academic/Research/CognAC/cerebellum backup/gss/resources/stimuli/stroop_practice/red_g.png,2025-12-05T14:22:33.669517,2025-12-05T14:25:11.880924
final_test,2,102,gss practice,gss practice,accuracy,True,698,/Users/alvinm/Documents/Documents/Academic/Research/CognAC/cerebellum backup/gss/resources/stimuli/stroop_practice/green_r.png,2025-12-05T14:22:33.669517,2025-12-05T14:25:17.933705
final_test,2,103,gss practice,gss practice,accuracy,False,456,/Users/alvinm/Documents/Documents/Academic/Research/CognAC/cerebellum backup/gss/resources/stimuli/stroop_practice/yellow_b.png,2025-12-05T14:22:33.669517,2025-12-05T14:25:18.391077
final_test,2,104,gss practice,gss practice,accuracy,False,324,/Users/alvinm/Documents/Documents/Academic/Research/CognAC/cerebellum backup/gss/resources/stimuli/stroop_practice/blue_y.png,2025-12-05T14:22:33.669517,2025-12-05T14:25:18.717350
final_test,2,105,gss practice,gss practice,accuracy,False,373,/Users/alvinm/Documents/Documents/Academic/Research/CognAC/cerebellum backup/gss/resources/stimuli/stroop_practice/green_r.png,2025-12-05T14:22:33.669517,2025-12-05T14:25:19.090915
final_test,2,106,gss practice,gss practice,accuracy,False,244,/Users/alvinm/Documents/Documents/Academic/Research/CognAC/cerebellum backup/gss/resources/stimuli/stroop_practice/blue_g.png,2025-12-05T14:22:33.669517,2025-12-05T14:25:19.335484
final_test,2,107,gss practice,gss practice,accuracy,False,148,/Users/alvinm/Documents/Documents/Academic/Research/CognAC/cerebellum backup/gss/resources/stimuli/stroop_practice/red_y.png,2025-12-05T14:22:33.669517,2025-12-05T14:25:19.484644
final_test,2,108,gss practice,gss practice,accuracy,True,244,/Users/alvinm/Documents/Documents/Academic/Research/CognAC/cerebellum backup/gss/resources/stimuli/stroop_practice/green_b.png,2025-12-05T14:22:33.669517,2025-12-05T14:25:19.729080
final_test,2,109,gss practice,gss practice,accuracy,True,130,/Users/alvinm/Documents/Documents/Academic/Research/CognAC/cerebellum backup/gss/resources/stimuli/stroop_practice/yellow_r.png,2025-12-05T14:22:33.669517,2025-12-05T14:25:19.859879
final_test,2,110,gss practice,gss practice,accuracy,False,132,/Users/alvinm/Documents/Documents/Academic/Research/CognAC/cerebellum backup/gss/resources/stimuli/stroop_practice/blue_g.png,2025-12-05T14:22:33.669517,2025-12-05T14:25:19.993680
final_test,2,111,gss practice,gss practice,accuracy,False,132,/Users/alvinm/Documents/Documents/Academic/Research/CognAC/cerebellum backup/gss/resources/stimuli/stroop_practice/yellow_y.png,2025-12-05T14:22:33.669517,2025-12-05T14:25:20.125790
final_test,2,112,gss practice,gss practice,accuracy,False,113,/Users/alvinm/Documents/Documents/Academic/Research/CognAC/cerebellum backup/gss/resources/stimuli/stroop_practice/green_g.png,2025-12-05T14:22:33.669517,2025-12-05T14:25:20.240108
final_test,2,113,gss practice,gss practice,accuracy,False,64,/Users/alvinm/Documents/Documents/Academic/Research/CognAC/cerebellum backup/gss/resources/stimuli/stroop_practice/red_y.png,2025-12-05T14:22:33.669517,2025-12-05T14:25:20.305669
final_test,2,114,gss practice,gss practice,accuracy,False,192,/Users/alvinm/Documents/Documents/Academic/Research/CognAC/cerebellum backup/gss/resources/stimuli/stroop_practice/blue_b.png,2025-12-05T14:22:33.669517,2025-12-05T14:25:20.499089
final_test,2,115,gss practice,gss practice,accuracy,True,130,/Users/alvinm/Documents/Documents/Academic/Research/CognAC/cerebellum backup/gss/resources/stimuli/stroop_practice/green_r.png,2025-12-05T14:22:33.669517,2025-12-05T14:25:20.630699
final_test,2,116,gss practice,gss practice,accuracy,False,180,/Users/alvinm/Documents/Documents/Academic/Research/CognAC/cerebellum backup/gss/resources/stimuli/stroop_practice/red_y.png,2025-12-05T14:22:33.669517,2025-12-05T14:25:20.812188
final_test,2,117,gss practice,gss practice,accuracy,True,148,/Users/alvinm/Documents/Documents/Academic/Research/CognAC/cerebellum backup/gss/resources/stimuli/stroop_practice/blue_b.png,2025-12-05T14:22:33.669517,2025-12-05T14:25:20.962197
final_test,2,118,gss practice,gss practice,accuracy,False,655,/Users/alvinm/Documents/Documents/Academic/Research/CognAC/cerebellum backup/gss/resources/stimuli/stroop_practice/blue_b.png,2025-12-05T14:22:33.669517,2025-12-05T14:25:23.813890
final_test,2,119,gss practice,gss practice,accuracy,False,197,/Users/alvinm/Documents/Documents/Academic/Research/CognAC/cerebellum backup/gss/resources/stimuli/stroop_practice/green_r.png,2025-12-05T14:22:33.669517,2025-12-05T14:25:24.011932
final_test,2,120,gss practice,gss practice,accuracy,False,319,/Users/alvinm/Documents/Documents/Academic/Research/CognAC/cerebellum backup/gss/resources/stimuli/stroop_practice/yellow_y.png,2025-12-05T14:22:33.669517,2025-12-05T14:25:24.333288
final_test,2,121,gss practice,gss practice,accuracy,True,145,/Users/alvinm/Documents/Documents/Academic/Research/CognAC/cerebellum backup/gss/resources/stimuli/stroop_practice/green_b.png,2025-12-05T14:22:33.669517,2025-12-05T14:25:24.480429
final_test,2,122,gss practice,gss practice,accuracy,False,64,/Users/alvinm/Documents/Documents/Academic/Research/CognAC/cerebellum backup/gss/resources/stimuli/stroop_practice/yellow_y.png,2025-12-05T14:22:33.669517,2025-12-05T14:25:24.546456
final_test,2,123,gss practice,gss practice,accuracy,False,97,/Users/alvinm/Documents/Documents/Academic/Research/CognAC/cerebellum backup/gss/resources/stimuli/stroop_practice/red_b.png,2025-12-05T14:22:33.669517,2025-12-05T14:25:24.644314
final_test,2,124,gss practice,gss practice,accuracy,True,199,/Users/alvinm/Documents/Documents/Academic/Research/CognAC/cerebellum backup/gss/resources/stimuli/stroop_practice/blue_g.png,2025-12-05T14:22:33.669517,2025-12-05T14:25:24.845580
final_test,2,125,gss practice,gss practice,accuracy,False,131,/Users/alvinm/Documents/Documents/Academic/Research/CognAC/cerebellum backup/gss/resources/stimuli/stroop_practice/yellow_y.png,2025-12-05T14:22:33.669517,2025-12-05T14:25:24.977320
final_test,2,126,gss practice,gss practice,accuracy,False,166,/Users/alvinm/Documents/Documents/Academic/Research/CognAC/cerebellum backup/gss/resources/stimuli/stroop_practice/green_b.png,2025-12-05T14:22:33.669517,2025-12-05T14:25:25.144052
final_test,2,127,gss practice,gss practice,accuracy,True,111,/Users/alvinm/Documents/Documents/Academic/Research/CognAC/cerebellum backup/gss/resources/stimuli/stroop_practice/blue_g.png,2025-12-05T14:22:33.669517,2025-12-05T14:25:25.257601
final_test,2,128,gss practice,gss practice,accuracy,True,146,/Users/alvinm/Documents/Documents/Academic/Research/CognAC/cerebellum backup/gss/resources/stimuli/stroop_practice/green_b.png,2025-12-05T14:22:33.669517,2025-12-05T14:25:25.405188
final_test,2,129,gss practice,gss practice,accuracy,True,160,/Users/alvinm/Documents/Documents/Academic/Research/CognAC/cerebellum backup/gss/resources/stimuli/stroop_practice/yellow_r.png,2025-12-05T14:22:33.669517,2025-12-05T14:25:25.567344
final_test,2,130,gss practice,gss practice,accuracy,False,163,/Users/alvinm/Documents/Documents/Academic/Research/CognAC/cerebellum backup/gss/resources/stimuli/stroop_practice/red_g.png,2025-12-05T14:22:33.669517,2025-12-05T14:25:25.731182
final_test,2,131,gss practice,gss practice,accuracy,False,165,/Users/alvinm/Documents/Documents/Academic/Research/CognAC/cerebellum backup/gss/resources/stimuli/stroop_practice/blue_r.png,2025-12-05T14:22:33.669517,2025-12-05T14:25:25.897003
final_test,2,132,gss practice,gss practice,accuracy,False,97,/Users/alvinm/Documents/Documents/Academic/Research/CognAC/cerebellum backup/gss/resources/stimuli/stroop_practice/red_g.png,2025-12-05T14:22:33.669517,2025-12-05T14:25:25.994819
final_test,2,133,gss practice,gss practice,accuracy,True,310,/Users/alvinm/Documents/Documents/Academic/Research/CognAC/cerebellum backup/gss/resources/stimuli/stroop_practice/green_r.png,2025-12-05T14:22:33.669517,2025-12-05T14:25:26.306161
final_test,2,134,gss practice,gss practice,accuracy,False,305,/Users/alvinm/Documents/Documents/Academic/Research/CognAC/cerebellum backup/gss/resources/stimuli/stroop_practice/red_y.png,2025-12-05T14:22:33.669517,2025-12-05T14:25:26.612766
final_test,2,135,gss practice,gss practice,accuracy,False,265,/Users/alvinm/Documents/Documents/Academic/Research/CognAC/cerebellum backup/gss/resources/stimuli/stroop_practice/green_g.png,2025-12-05T14:22:33.669517,2025-12-05T14:25:26.878734
final_test,2,136,gss practice,gss practice,accuracy,False,160,/Users/alvinm/Documents/Documents/Academic/Research/CognAC/cerebellum backup/gss/resources/stimuli/stroop_practice/red_y.png,2025-12-05T14:22:33.669517,2025-12-05T14:25:27.040618
final_test,2,137,gss practice,gss practice,accuracy,False,211,/Users/alvinm/Documents/Documents/Academic/Research/CognAC/cerebellum backup/gss/resources/stimuli/stroop_practice/green_g.png,2025-12-05T14:22:33.669517,2025-12-05T14:25:27.252937
final_test,2,138,gss practice,gss practice,accuracy,False,275,/Users/alvinm/Documents/Documents/Academic/Research/CognAC/cerebellum backup/gss/resources/stimuli/stroop_practice/red_b.png,2025-12-05T14:22:33.669517,2025-12-05T14:25:27.530340
final_test,2,139,gss practice,gss practice,accuracy,True,307,/Users/alvinm/Documents/Documents/Academic/Research/CognAC/cerebellum backup/gss/resources/stimuli/stroop_practice/blue_y.png,2025-12-05T14:22:33.669517,2025-12-05T14:25:27.837788
final_test,2,140,gss practice,gss practice,accuracy,False,255,/Users/alvinm/Documents/Documents/Academic/Research/CognAC/cerebellum backup/gss/resources/stimuli/stroop_practice/green_b.png,2025-12-05T14:22:33.669517,2025-12-05T14:25:33.439210
final_test,2,141,gss practice,gss practice,accuracy,False,209,/Users/alvinm/Documents/Documents/Academic/Research/CognAC/cerebellum backup/gss/resources/stimuli/stroop_practice/red_g.png,2025-12-05T14:22:33.669517,2025-12-05T14:25:33.650648
final_test,2,142,gss practice,gss practice,accuracy,False,96,/Users/alvinm/Documents/Documents/Academic/Research/CognAC/cerebellum backup/gss/resources/stimuli/stroop_practice/blue_y.png,2025-12-05T14:22:33.669517,2025-12-05T14:25:33.748009
final_test,2,143,gss practice,gss practice,accuracy,False,211,/Users/alvinm/Documents/Documents/Academic/Research/CognAC/cerebellum backup/gss/resources/stimuli/stroop_practice/red_b.png,2025-12-05T14:22:33.669517,2025-12-05T14:25:33.960130
final_test,2,144,gss practice,gss practice,accuracy,True,63,/Users/alvinm/Documents/Documents/Academic/Research/CognAC/cerebellum backup/gss/resources/stimuli/stroop_practice/green_g.png,2025-12-05T14:22:33.669517,2025-12-05T14:25:34.025666
final_test,2,145,gss practice,gss practice,accuracy,False,98,/Users/alvinm/Documents/Documents/Academic/Research/CognAC/cerebellum backup/gss/resources/stimuli/stroop_practice/yellow_b.png,2025-12-05T14:22:33.669517,2025-12-05T14:25:34.124364
final_test,2,146,gss practice,gss practice,accuracy,False,48,/Users/alvinm/Documents/Documents/Academic/Research/CognAC/cerebellum backup/gss/resources/stimuli/stroop_practice/blue_y.png,2025-12-05T14:22:33.669517,2025-12-05T14:25:34.174104
final_test,2,147,gss practice,gss practice,accuracy,True,208,/Users/alvinm/Documents/Documents/Academic/Research/CognAC/cerebellum backup/gss/resources/stimuli/stroop_practice/yellow_r.png,2025-12-05T14:22:33.669517,2025-12-05T14:25:34.384445
final_test,2,148,gss practice,gss practice,accuracy,True,130,/Users/alvinm/Documents/Documents/Academic/Research/CognAC/cerebellum backup/gss/resources/stimuli/stroop_practice/red_y.png,2025-12-05T14:22:33.669517,2025-12-05T14:25:34.515255
final_test,2,149,gss practice,gss practice,accuracy,False,114,/Users/alvinm/Documents/Documents/Academic/Research/CognAC/cerebellum backup/gss/resources/stimuli/stroop_practice/blue_r.png,2025-12-05T14:22:33.669517,2025-12-05T14:25:34.631488
final_test,2,150,gss practice,gss practice,accuracy,False,47,/Users/alvinm/Documents/Documents/Academic/Research/CognAC/cerebellum backup/gss/resources/stimuli/stroop_practice/yellow_y.png,2025-12-05T14:22:33.669517,2025-12-05T14:25:34.680032
final_test,2,151,gss practice,gss practice,accuracy,False,79,/Users/alvinm/Documents/Documents/Academic/Research/CognAC/cerebellum backup/gss/resources/stimuli/stroop_practice/green_r.png,2025-12-05T14:22:33.669517,2025-12-05T14:25:34.760459
final_test,2,152,gss practice,gss practice,accuracy,False,132,/Users/alvinm/Documents/Documents/Academic/Research/CognAC/cerebellum backup/gss/resources/stimuli/stroop_practice/blue_g.png,2025-12-05T14:22:33.669517,2025-12-05T14:25:34.892929
final_test,2,153,gss practice,gss practice,accuracy,True,96,/Users/alvinm/Documents/Documents/Academic/Research/CognAC/cerebellum backup/gss/resources/stimuli/stroop_practice/yellow_r.png,2025-12-05T14:22:33.669517,2025-12-05T14:25:34.991107
final_test,2,154,gss practice,gss practice,accuracy,True,114,/Users/alvinm/Documents/Documents/Academic/Research/CognAC/cerebellum backup/gss/resources/stimuli/stroop_practice/blue_y.png,2025-12-05T14:22:33.669517,2025-12-05T14:25:35.106090
final_test,2,155,gss practice,gss practice,accuracy,False,10,/Users/alvinm/Documents/Documents/Academic/Research/CognAC/cerebellum backup/gss/resources/stimuli/stroop_practice/red_b.png,2025-12-05T14:22:33.669517,2025-12-05T14:25:35.118569
final_test,2,156,gss practice,gss practice,accuracy,False,135,/Users/alvinm/Documents/Documents/Academic/Research/CognAC/cerebellum backup/gss/resources/stimuli/stroop_practice/green_y.png,2025-12-05T14:22:33.669517,2025-12-05T14:25:35.254663
final_test,2,157,gss practice,gss practice,accuracy,False,62,/Users/alvinm/Documents/Documents/Academic/Research/CognAC/cerebellum backup/gss/resources/stimuli/stroop_practice/yellow_r.png,2025-12-05T14:22:33.669517,2025-12-05T14:25:35.318677
final_test,2,158,gss practice,gss practice,accuracy,True,162,/Users/alvinm/Documents/Documents/Academic/Research/CognAC/cerebellum backup/gss/resources/stimuli/stroop_practice/red_y.png,2025-12-05T14:22:33.669517,2025-12-05T14:25:35.481145
final_test,2,159,gss practice,gss practice,accuracy,False,128,/Users/alvinm/Documents/Documents/Academic/Research/CognAC/cerebellum backup/gss/resources/stimuli/stroop_practice/green_r.png,2025-12-05T14:22:33.669517,2025-12-05T14:25:35.611500
final_test,2,160,gss practice,gss practice,accuracy,False,341,/Users/alvinm/Documents/Documents/Academic/Research/CognAC/cerebellum backup/gss/resources/stimuli/stroop_practice/blue_b.png,2025-12-05T14:22:33.669517,2025-12-05T14:25:35.953705
final_test,2,161,gss practice,gss practice,accuracy,True,272,/Users/alvinm/Documents/Documents/Academic/Research/CognAC/cerebellum backup/gss/resources/stimuli/stroop_practice/yellow_y.png,2025-12-05T14:22:33.669517,2025-12-05T14:25:36.227531
final_test,2,162,gss practice,gss practice,accuracy,False,48,/Users/alvinm/Documents/Documents/Academic/Research/CognAC/cerebellum backup/gss/resources/stimuli/stroop_practice/green_b.png,2025-12-05T14:22:33.669517,2025-12-05T14:25:36.276939
final_test,2,163,gss practice,gss practice,accuracy,False,82,/Users/alvinm/Documents/Documents/Academic/Research/CognAC/cerebellum backup/gss/resources/stimuli/stroop_practice/red_y.png,2025-12-05T14:22:33.669517,2025-12-05T14:25:36.360650
final_test,2,164,gss practice,gss practice,accuracy,False,159,/Users/alvinm/Documents/Documents/Academic/Research/CognAC/cerebellum backup/gss/resources/stimuli/stroop_practice/green_r.png,2025-12-05T14:22:33.669517,2025-12-05T14:25:36.521018
final_test,2,165,gss practice,gss practice,accuracy,False,129,/Users/alvinm/Documents/Documents/Academic/Research/CognAC/cerebellum backup/gss/resources/stimuli/stroop_practice/blue_b.png,2025-12-05T14:22:33.669517,2025-12-05T14:25:36.651866
final_test,2,166,gss practice,gss practice,accuracy,False,148,/Users/alvinm/Documents/Documents/Academic/Research/CognAC/cerebellum backup/gss/resources/stimuli/stroop_practice/green_g.png,2025-12-05T14:22:33.669517,2025-12-05T14:25:36.801185
final_test,2,167,gss practice,gss practice,accuracy,False,96,/Users/alvinm/Documents/Documents/Academic/Research/CognAC/cerebellum backup/gss/resources/stimuli/stroop_practice/yellow_b.png,2025-12-05T14:22:33.669517,2025-12-05T14:25:36.898734
final_test,2,168,gss practice,gss practice,accuracy,False,166,/Users/alvinm/Documents/Documents/Academic/Research/CognAC/cerebellum backup/gss/resources/stimuli/stroop_practice/blue_r.png,2025-12-05T14:22:33.669517,2025-12-05T14:25:37.065220
final_test,2,169,gss practice,gss practice,accuracy,False,28,/Users/alvinm/Documents/Documents/Academic/Research/CognAC/cerebellum backup/gss/resources/stimuli/stroop_practice/green_b.png,2025-12-05T14:22:33.669517,2025-12-05T14:25:37.094909
final_test,2,170,gss practice,gss practice,accuracy,False,79,/Users/alvinm/Documents/Documents/Academic/Research/CognAC/cerebellum backup/gss/resources/stimuli/stroop_practice/yellow_g.png,2025-12-05T14:22:33.669517,2025-12-05T14:25:37.175284
final_test,2,171,gss practice,gss practice,accuracy,False,35,/Users/alvinm/Documents/Documents/Academic/Research/CognAC/cerebellum backup/gss/resources/stimuli/stroop_practice/green_y.png,2025-12-05T14:22:33.669517,2025-12-05T14:25:37.212796
final_test,2,172,gss practice,gss practice,accuracy,False,175,/Users/alvinm/Documents/Documents/Academic/Research/CognAC/cerebellum backup/gss/resources/stimuli/stroop_practice/yellow_r.png,2025-12-05T14:22:33.669517,2025-12-05T14:25:37.389780
final_test,2,173,gss practice,gss practice,accuracy,False,110,/Users/alvinm/Documents/Documents/Academic/Research/CognAC/cerebellum backup/gss/resources/stimuli/stroop_practice/blue_y.png,2025-12-05T14:22:33.669517,2025-12-05T14:25:37.501095
final_test,2,174,gss practice,gss practice,accuracy,False,98,/Users/alvinm/Documents/Documents/Academic/Research/CognAC/cerebellum backup/gss/resources/stimuli/stroop_practice/red_r.png,2025-12-05T14:22:33.669517,2025-12-05T14:25:37.600118
final_test,2,175,gss practice,gss practice,accuracy,False,48,/Users/alvinm/Documents/Documents/Academic/Research/CognAC/cerebellum backup/gss/resources/stimuli/stroop_practice/blue_b.png,2025-12-05T14:22:33.669517,2025-12-05T14:25:37.650087
final_test,2,176,gss practice,gss practice,accuracy,False,97,/Users/alvinm/Documents/Documents/Academic/Research/CognAC/cerebellum backup/gss/resources/stimuli/stroop_practice/yellow_g.png,2025-12-05T14:22:33.669517,2025-12-05T14:25:37.748796
final_test,2,177,gss practice,gss practice,accuracy,True,10,/Users/alvinm/Documents/Documents/Academic/Research/CognAC/cerebellum backup/gss/resources/stimuli/stroop_practice/green_r.png,2025-12-05T14:22:33.669517,2025-12-05T14:25:37.760613
final_test,2,178,gss practice,gss practice,accuracy,False,135,/Users/alvinm/Documents/Documents/Academic/Research/CognAC/cerebellum backup/gss/resources/stimuli/stroop_practice/blue_g.png,2025-12-05T14:22:33.669517,2025-12-05T14:25:37.897218
final_test,2,179,gss practice,gss practice,accuracy,False,164,/Users/alvinm/Documents/Documents/Academic/Research/CognAC/cerebellum backup/gss/resources/stimuli/stroop_practice/green_y.png,2025-12-05T14:22:33.669517,2025-12-05T14:25:38.062537
final_test,2,180,gss practice,gss practice,accuracy,False,30,/Users/alvinm/Documents/Documents/Academic/Research/CognAC/cerebellum backup/gss/resources/stimuli/stroop_practice/blue_g.png,2025-12-05T14:22:33.669517,2025-12-05T14:25:38.094260
final_test,2,181,gss practice,gss practice,accuracy,True,95,/Users/alvinm/Documents/Documents/Academic/Research/CognAC/cerebellum backup/gss/resources/stimuli/stroop_practice/red_y.png,2025-12-05T14:22:33.669517,2025-12-05T14:25:38.191263
final_test,2,182,gss practice,gss practice,accuracy,True,63,/Users/alvinm/Documents/Documents/Academic/Research/CognAC/cerebellum backup/gss/resources/stimuli/stroop_practice/yellow_b.png,2025-12-05T14:22:33.669517,2025-12-05T14:25:38.256809
final_test,2,183,gss practice,gss practice,accuracy,True,132,/Users/alvinm/Documents/Documents/Academic/Research/CognAC/cerebellum backup/gss/resources/stimuli/stroop_practice/green_r.png,2025-12-05T14:22:33.669517,2025-12-05T14:25:38.390133
final_test,2,184,gss practice,gss practice,accuracy,False,224,/Users/alvinm/Documents/Documents/Academic/Research/CognAC/cerebellum backup/gss/resources/stimuli/stroop_practice/blue_b.png,2025-12-05T14:22:33.669517,2025-12-05T14:25:38.616337
final_test,2,185,gss practice,gss practice,speed,False,343,/Users/alvinm/Documents/Documents/Academic/Research/CognAC/cerebellum backup/gss/resources/stimuli/stroop_practice/green_r.png,2025-12-05T14:22:33.669517,2025-12-05T14:25:41.268386
final_test,2,186,gss practice,gss practice,speed,False,47,/Users/alvinm/Documents/Documents/Academic/Research/CognAC/cerebellum backup/gss/resources/stimuli/stroop_practice/blue_g.png,2025-12-05T14:22:33.669517,2025-12-05T14:25:41.317659
final_test,2,187,gss practice,gss practice,speed,False,80,/Users/alvinm/Documents/Documents/Academic/Research/CognAC/cerebellum backup/gss/resources/stimuli/stroop_practice/red_b.png,2025-12-05T14:22:33.669517,2025-12-05T14:25:41.398888
final_test,2,188,gss practice,gss practice,speed,False,11,/Users/alvinm/Documents/Documents/Academic/Research/CognAC/cerebellum backup/gss/resources/stimuli/stroop_practice/green_g.png,2025-12-05T14:22:33.669517,2025-12-05T14:25:41.411479
final_test,2,189,gss practice,gss practice,speed,True,103,/Users/alvinm/Documents/Documents/Academic/Research/CognAC/cerebellum backup/gss/resources/stimuli/stroop_practice/blue_y.png,2025-12-05T14:22:33.669517,2025-12-05T14:25:41.515700
final_test,2,190,gss practice,gss practice,speed,False,111,/Users/alvinm/Documents/Documents/Academic/Research/CognAC/cerebellum backup/gss/resources/stimuli/stroop_practice/red_r.png,2025-12-05T14:22:33.669517,2025-12-05T14:25:41.628822
final_test,2,191,gss practice,gss practice,speed,True,12,/Users/alvinm/Documents/Documents/Academic/Research/CognAC/cerebellum backup/gss/resources/stimuli/stroop_practice/blue_y.png,2025-12-05T14:22:33.669517,2025-12-05T14:25:41.642014
final_test,2,192,gss practice,gss practice,speed,False,100,/Users/alvinm/Documents/Documents/Academic/Research/CognAC/cerebellum backup/gss/resources/stimuli/stroop_practice/green_g.png,2025-12-05T14:22:33.669517,2025-12-05T14:25:41.743305
final_test,2,193,gss practice,gss practice,speed,True,127,/Users/alvinm/Documents/Documents/Academic/Research/CognAC/cerebellum backup/gss/resources/stimuli/stroop_practice/yellow_y.png,2025-12-05T14:22:33.669517,2025-12-05T14:25:41.872812
final_test,2,194,gss practice,gss practice,speed,True,65,/Users/alvinm/Documents/Documents/Academic/Research/CognAC/cerebellum backup/gss/resources/stimuli/stroop_practice/green_g.png,2025-12-05T14:22:33.669517,2025-12-05T14:25:41.939548
final_test,2,195,gss practice,gss practice,speed,False,159,/Users/alvinm/Documents/Documents/Academic/Research/CognAC/cerebellum backup/gss/resources/stimuli/stroop_practice/red_r.png,2025-12-05T14:22:33.669517,2025-12-05T14:25:42.100224
final_test,2,196,gss practice,gss practice,speed,True,33,/Users/alvinm/Documents/Documents/Academic/Research/CognAC/cerebellum backup/gss/resources/stimuli/stroop_practice/blue_y.png,2025-12-05T14:22:33.669517,2025-12-05T14:25:42.135438
final_test,2,197,gss practice,gss practice,speed,False,47,/Users/alvinm/Documents/Documents/Academic/Research/CognAC/cerebellum backup/gss/resources/stimuli/stroop_practice/green_g.png,2025-12-05T14:22:33.669517,2025-12-05T14:25:42.184178
final_test,2,198,gss practice,gss practice,speed,True,63,/Users/alvinm/Documents/Documents/Academic/Research/CognAC/cerebellum backup/gss/resources/stimuli/stroop_practice/red_r.png,2025-12-05T14:22:33.669517,2025-12-05T14:25:42.249550
final_test,2,199,gss practice,gss practice,speed,False,113,/Users/alvinm/Documents/Documents/Academic/Research/CognAC/cerebellum backup/gss/resources/stimuli/stroop_practice/yellow_g.png,2025-12-05T14:22:33.669517,2025-12-05T14:25:42.364448
final_test,2,200,gss practice,gss practice,speed,True,112,/Users/alvinm/Documents/Documents/Academic/Research/CognAC/cerebellum backup/gss/resources/stimuli/stroop_practice/blue_b.png,2025-12-05T14:22:33.669517,2025-12-05T14:25:42.477890
final_test,2,201,gss practice,gss practice,speed,False,96,/Users/alvinm/Documents/Documents/Academic/Research/CognAC/cerebellum backup/gss/resources/stimuli/stroop_practice/red_r.png,2025-12-05T14:22:33.669517,2025-12-05T14:25:42.574343
final_test,2,202,gss practice,gss practice,speed,False,80,/Users/alvinm/Documents/Documents/Academic/Research/CognAC/cerebellum backup/gss/resources/stimuli/stroop_practice/green_y.png,2025-12-05T14:22:33.669517,2025-12-05T14:25:42.656286
final_test,2,203,gss practice,gss practice,speed,False,12,/Users/alvinm/Documents/Documents/Academic/Research/CognAC/cerebellum backup/gss/resources/stimuli/stroop_practice/yellow_g.png,2025-12-05T14:22:33.669517,2025-12-05T14:25:42.670352
final_test,2,204,gss practice,gss practice,speed,False,133,/Users/alvinm/Documents/Documents/Academic/Research/CognAC/cerebellum backup/gss/resources/stimuli/stroop_practice/green_b.png,2025-12-05T14:22:33.669517,2025-12-05T14:25:42.805221
final_test,2,205,gss practice,gss practice,speed,False,93,/Users/alvinm/Documents/Documents/Academic/Research/CognAC/cerebellum backup/gss/resources/stimuli/stroop_practice/red_y.png,2025-12-05T14:22:33.669517,2025-12-05T14:25:42.899684
final_test,2,206,gss practice,gss practice,speed,False,63,/Users/alvinm/Documents/Documents/Academic/Research/CognAC/cerebellum backup/gss/resources/stimuli/stroop_practice/blue_g.png,2025-12-05T14:22:33.669517,2025-12-05T14:25:42.965016
final_test,2,207,gss practice,gss practice,speed,False,49,/Users/alvinm/Documents/Documents/Academic/Research/CognAC/cerebellum backup/gss/resources/stimuli/stroop_practice/yellow_y.png,2025-12-05T14:22:33.669517,2025-12-05T14:25:43.015877
final_test,2,208,gss practice,gss practice,speed,False,96,/Users/alvinm/Documents/Documents/Academic/Research/CognAC/cerebellum backup/gss/resources/stimuli/stroop_practice/blue_b.png,2025-12-05T14:22:33.669517,2025-12-05T14:25:43.112994
final_test,2,209,gss practice,gss practice,speed,False,178,/Users/alvinm/Documents/Documents/Academic/Research/CognAC/cerebellum backup/gss/resources/stimuli/stroop_practice/green_r.png,2025-12-05T14:22:33.669517,2025-12-05T14:25:43.293851
final_test,2,210,gss practice,gss practice,speed,True,62,/Users/alvinm/Documents/Documents/Academic/Research/CognAC/cerebellum backup/gss/resources/stimuli/stroop_practice/blue_b.png,2025-12-05T14:22:33.669517,2025-12-05T14:25:43.357429
final_test,2,211,gss practice,gss practice,speed,False,12,/Users/alvinm/Documents/Documents/Academic/Research/CognAC/cerebellum backup/gss/resources/stimuli/stroop_practice/red_y.png,2025-12-05T14:22:33.669517,2025-12-05T14:25:43.370436
final_test,2,212,gss practice,gss practice,speed,True,148,/Users/alvinm/Documents/Documents/Academic/Research/CognAC/cerebellum backup/gss/resources/stimuli/stroop_practice/green_g.png,2025-12-05T14:22:33.669517,2025-12-05T14:25:43.520154
final_test,2,213,gss practice,gss practice,speed,True,49,/Users/alvinm/Documents/Documents/Academic/Research/CognAC/cerebellum backup/gss/resources/stimuli/stroop_practice/red_y.png,2025-12-05T14:22:33.669517,2025-12-05T14:25:43.571370
final_test,2,214,gss practice,gss practice,speed,False,10,/Users/alvinm/Documents/Documents/Academic/Research/CognAC/cerebellum backup/gss/resources/stimuli/stroop_practice/green_g.png,2025-12-05T14:22:33.669517,2025-12-05T14:25:43.582481
final_test,2,215,gss practice,gss practice,speed,False,85,/Users/alvinm/Documents/Documents/Academic/Research/CognAC/cerebellum backup/gss/resources/stimuli/stroop_practice/blue_r.png,2025-12-05T14:22:33.669517,2025-12-05T14:25:43.668968
final_test,2,216,gss practice,gss practice,speed,False,33,/Users/alvinm/Documents/Documents/Academic/Research/CognAC/cerebellum backup/gss/resources/stimuli/stroop_practice/green_y.png,2025-12-05T14:22:33.669517,2025-12-05T14:25:43.703320
final_test,2,217,gss practice,gss practice,speed,False,96,/Users/alvinm/Documents/Documents/Academic/Research/CognAC/cerebellum backup/gss/resources/stimuli/stroop_practice/blue_r.png,2025-12-05T14:22:33.669517,2025-12-05T14:25:43.800639
final_test,2,218,gss practice,gss practice,speed,False,114,/Users/alvinm/Documents/Documents/Academic/Research/CognAC/cerebellum backup/gss/resources/stimuli/stroop_practice/yellow_b.png,2025-12-05T14:22:33.669517,2025-12-05T14:25:43.916821
final_test,2,219,gss practice,gss practice,speed,False,31,/Users/alvinm/Documents/Documents/Academic/Research/CognAC/cerebellum backup/gss/resources/stimuli/stroop_practice/green_y.png,2025-12-05T14:22:33.669517,2025-12-05T14:25:43.950031
final_test,2,220,gss practice,gss practice,speed,False,63,/Users/alvinm/Documents/Documents/Academic/Research/CognAC/cerebellum backup/gss/resources/stimuli/stroop_practice/blue_b.png,2025-12-05T14:22:33.669517,2025-12-05T14:25:44.014456
final_test,2,221,gss practice,gss practice,speed,False,12,/Users/alvinm/Documents/Documents/Academic/Research/CognAC/cerebellum backup/gss/resources/stimuli/stroop_practice/red_g.png,2025-12-05T14:22:33.669517,2025-12-05T14:25:44.028849
final_test,2,222,gss practice,gss practice,speed,False,53,/Users/alvinm/Documents/Documents/Academic/Research/CognAC/cerebellum backup/gss/resources/stimuli/stroop_practice/blue_b.png,2025-12-05T14:22:33.669517,2025-12-05T14:25:44.083713
final_test,2,223,gss practice,gss practice,speed,False,241,/Users/alvinm/Documents/Documents/Academic/Research/CognAC/cerebellum backup/gss/resources/stimuli/stroop_practice/green_g.png,2025-12-05T14:22:33.669517,2025-12-05T14:25:44.325963
final_test,2,224,gss practice,gss practice,speed,False,32,/Users/alvinm/Documents/Documents/Academic/Research/CognAC/cerebellum backup/gss/resources/stimuli/stroop_practice/yellow_b.png,2025-12-05T14:22:33.669517,2025-12-05T14:25:44.359783
final_test,2,225,gss practice,gss practice,speed,False,145,/Users/alvinm/Documents/Documents/Academic/Research/CognAC/cerebellum backup/gss/resources/stimuli/stroop_practice/blue_r.png,2025-12-05T14:22:33.669517,2025-12-05T14:25:44.505733
final_test,2,226,gss practice,gss practice,speed,True,192,/Users/alvinm/Documents/Documents/Academic/Research/CognAC/cerebellum backup/gss/resources/stimuli/stroop_practice/yellow_y.png,2025-12-05T14:22:33.669517,2025-12-05T14:25:44.699452
final_test,2,227,gss practice,gss practice,speed,False,47,/Users/alvinm/Documents/Documents/Academic/Research/CognAC/cerebellum backup/gss/resources/stimuli/stroop_practice/red_r.png,2025-12-05T14:22:33.669517,2025-12-05T14:25:44.749268
final_test,2,228,gss practice,gss practice,speed,True,148,/Users/alvinm/Documents/Documents/Academic/Research/CognAC/cerebellum backup/gss/resources/stimuli/stroop_practice/blue_y.png,2025-12-05T14:22:33.669517,2025-12-05T14:25:44.898331
final_test,2,229,gss practice,gss practice,speed,False,316,/Users/alvinm/Documents/Documents/Academic/Research/CognAC/cerebellum backup/gss/resources/stimuli/stroop_practice/green_r.png,2025-12-05T14:22:33.669517,2025-12-05T14:25:54.505097
final_test,2,230,gss practice,gss practice,speed,False,81,/Users/alvinm/Documents/Documents/Academic/Research/CognAC/cerebellum backup/gss/resources/stimuli/stroop_practice/red_g.png,2025-12-05T14:22:33.669517,2025-12-05T14:25:54.587925
final_test,2,231,gss practice,gss practice,speed,True,124,/Users/alvinm/Documents/Documents/Academic/Research/CognAC/cerebellum backup/gss/resources/stimuli/stroop_practice/yellow_y.png,2025-12-05T14:22:33.669517,2025-12-05T14:25:54.713655
final_test,2,232,gss practice,gss practice,speed,False,12,/Users/alvinm/Documents/Documents/Academic/Research/CognAC/cerebellum backup/gss/resources/stimuli/stroop_practice/blue_r.png,2025-12-05T14:22:33.669517,2025-12-05T14:25:54.727774
final_test,2,233,gss practice,gss practice,speed,False,86,/Users/alvinm/Documents/Documents/Academic/Research/CognAC/cerebellum backup/gss/resources/stimuli/stroop_practice/red_g.png,2025-12-05T14:22:33.669517,2025-12-05T14:25:54.815503
final_test,2,234,gss practice,gss practice,speed,False,31,/Users/alvinm/Documents/Documents/Academic/Research/CognAC/cerebellum backup/gss/resources/stimuli/stroop_practice/green_r.png,2025-12-05T14:22:33.669517,2025-12-05T14:25:54.848221
final_test,2,235,gss practice,gss practice,speed,False,81,/Users/alvinm/Documents/Documents/Academic/Research/CognAC/cerebellum backup/gss/resources/stimuli/stroop_practice/blue_b.png,2025-12-05T14:22:33.669517,2025-12-05T14:25:54.930494
final_test,2,236,gss practice,gss practice,speed,False,32,/Users/alvinm/Documents/Documents/Academic/Research/CognAC/cerebellum backup/gss/resources/stimuli/stroop_practice/green_r.png,2025-12-05T14:22:33.669517,2025-12-05T14:25:54.964540
final_test,2,237,gss practice,gss practice,speed,False,62,/Users/alvinm/Documents/Documents/Academic/Research/CognAC/cerebellum backup/gss/resources/stimuli/stroop_practice/blue_g.png,2025-12-05T14:22:33.669517,2025-12-05T14:25:55.028308
final_test,2,238,gss practice,gss practice,speed,False,81,/Users/alvinm/Documents/Documents/Academic/Research/CognAC/cerebellum backup/gss/resources/stimuli/stroop_practice/green_r.png,2025-12-05T14:22:33.669517,2025-12-05T14:25:55.110873
final_test,2,239,gss practice,gss practice,speed,False,46,/Users/alvinm/Documents/Documents/Academic/Research/CognAC/cerebellum backup/gss/resources/stimuli/stroop_practice/red_g.png,2025-12-05T14:22:33.669517,2025-12-05T14:25:55.158822
final_test,2,240,gss practice,gss practice,speed,False,45,/Users/alvinm/Documents/Documents/Academic/Research/CognAC/cerebellum backup/gss/resources/stimuli/stroop_practice/blue_r.png,2025-12-05T14:22:33.669517,2025-12-05T14:25:55.206064
final_test,2,241,gss practice,gss practice,speed,False,49,/Users/alvinm/Documents/Documents/Academic/Research/CognAC/cerebellum backup/gss/resources/stimuli/stroop_practice/green_b.png,2025-12-05T14:22:33.669517,2025-12-05T14:25:55.255962
final_test,2,242,gss practice,gss practice,speed,False,96,/Users/alvinm/Documents/Documents/Academic/Research/CognAC/cerebellum backup/gss/resources/stimuli/stroop_practice/yellow_r.png,2025-12-05T14:22:33.669517,2025-12-05T14:25:55.352472
final_test,2,243,gss practice,gss practice,speed,False,12,/Users/alvinm/Documents/Documents/Academic/Research/CognAC/cerebellum backup/gss/resources/stimuli/stroop_practice/red_g.png,2025-12-05T14:22:33.669517,2025-12-05T14:25:55.365348
final_test,2,244,gss practice,gss practice,speed,False,83,/Users/alvinm/Documents/Documents/Academic/Research/CognAC/cerebellum backup/gss/resources/stimuli/stroop_practice/yellow_y.png,2025-12-05T14:22:33.669517,2025-12-05T14:25:55.450052
final_test,2,245,gss practice,gss practice,speed,True,11,/Users/alvinm/Documents/Documents/Academic/Research/CognAC/cerebellum backup/gss/resources/stimuli/stroop_practice/blue_g.png,2025-12-05T14:22:33.669517,2025-12-05T14:25:55.462732
final_test,2,246,gss practice,gss practice,speed,True,118,/Users/alvinm/Documents/Documents/Academic/Research/CognAC/cerebellum backup/gss/resources/stimuli/stroop_practice/green_y.png,2025-12-05T14:22:33.669517,2025-12-05T14:25:55.582501
final_test,2,247,gss practice,gss practice,speed,False,66,/Users/alvinm/Documents/Documents/Academic/Research/CognAC/cerebellum backup/gss/resources/stimuli/stroop_practice/yellow_g.png,2025-12-05T14:22:33.669517,2025-12-05T14:25:55.649835
final_test,2,248,gss practice,gss practice,speed,False,80,/Users/alvinm/Documents/Documents/Academic/Research/CognAC/cerebellum backup/gss/resources/stimuli/stroop_practice/red_b.png,2025-12-05T14:22:33.669517,2025-12-05T14:25:55.730621
final_test,2,249,gss practice,gss practice,speed,False,80,/Users/alvinm/Documents/Documents/Academic/Research/CognAC/cerebellum backup/gss/resources/stimuli/stroop_practice/green_g.png,2025-12-05T14:22:33.669517,2025-12-05T14:25:55.813294
final_test,2,250,gss practice,gss practice,speed,False,96,/Users/alvinm/Documents/Documents/Academic/Research/CognAC/cerebellum backup/gss/resources/stimuli/stroop_practice/blue_b.png,2025-12-05T14:22:33.669517,2025-12-05T14:25:55.910595
final_test,2,251,gss practice,gss practice,speed,False,114,/Users/alvinm/Documents/Documents/Academic/Research/CognAC/cerebellum backup/gss/resources/stimuli/stroop_practice/green_r.png,2025-12-05T14:22:33.669517,2025-12-05T14:25:56.026535
final_test,2,252,gss practice,gss practice,speed,False,9,/Users/alvinm/Documents/Documents/Academic/Research/CognAC/cerebellum backup/gss/resources/stimuli/stroop_practice/yellow_b.png,2025-12-05T14:22:33.669517,2025-12-05T14:25:56.037182
final_test,2,253,gss practice,gss practice,speed,True,84,/Users/alvinm/Documents/Documents/Academic/Research/CognAC/cerebellum backup/gss/resources/stimuli/stroop_practice/red_r.png,2025-12-05T14:22:33.669517,2025-12-05T14:25:56.123277
final_test,2,254,gss practice,gss practice,speed,False,47,/Users/alvinm/Documents/Documents/Academic/Research/CognAC/cerebellum backup/gss/resources/stimuli/stroop_practice/green_g.png,2025-12-05T14:22:33.669517,2025-12-05T14:25:56.173257
final_test,2,255,gss practice,gss practice,speed,False,63,/Users/alvinm/Documents/Documents/Academic/Research/CognAC/cerebellum backup/gss/resources/stimuli/stroop_practice/blue_b.png,2025-12-05T14:22:33.669517,2025-12-05T14:25:56.239413
final_test,2,256,gss practice,gss practice,speed,False,77,/Users/alvinm/Documents/Documents/Academic/Research/CognAC/cerebellum backup/gss/resources/stimuli/stroop_practice/red_r.png,2025-12-05T14:22:33.669517,2025-12-05T14:25:56.318011
final_test,2,257,gss practice,gss practice,speed,False,11,/Users/alvinm/Documents/Documents/Academic/Research/CognAC/cerebellum backup/gss/resources/stimuli/stroop_practice/green_y.png,2025-12-05T14:22:33.669517,2025-12-05T14:25:56.331201
final_test,2,258,gss practice,gss practice,speed,False,68,/Users/alvinm/Documents/Documents/Academic/Research/CognAC/cerebellum backup/gss/resources/stimuli/stroop_practice/yellow_r.png,2025-12-05T14:22:33.669517,2025-12-05T14:25:56.400721
final_test,2,259,gss practice,gss practice,speed,False,80,/Users/alvinm/Documents/Documents/Academic/Research/CognAC/cerebellum backup/gss/resources/stimuli/stroop_practice/red_g.png,2025-12-05T14:22:33.669517,2025-12-05T14:25:56.482756
final_test,2,260,gss practice,gss practice,speed,False,62,/Users/alvinm/Documents/Documents/Academic/Research/CognAC/cerebellum backup/gss/resources/stimuli/stroop_practice/blue_b.png,2025-12-05T14:22:33.669517,2025-12-05T14:25:56.546912
final_test,2,261,gss practice,gss practice,speed,True,30,/Users/alvinm/Documents/Documents/Academic/Research/CognAC/cerebellum backup/gss/resources/stimuli/stroop_practice/green_r.png,2025-12-05T14:22:33.669517,2025-12-05T14:25:56.579215
final_test,2,262,gss practice,gss practice,speed,False,129,/Users/alvinm/Documents/Documents/Academic/Research/CognAC/cerebellum backup/gss/resources/stimuli/stroop_practice/blue_g.png,2025-12-05T14:22:33.669517,2025-12-05T14:25:56.710796
final_test,2,263,gss practice,gss practice,speed,False,94,/Users/alvinm/Documents/Documents/Academic/Research/CognAC/cerebellum backup/gss/resources/stimuli/stroop_practice/red_b.png,2025-12-05T14:22:33.669517,2025-12-05T14:25:56.807217
final_test,2,264,gss practice,gss practice,speed,False,96,/Users/alvinm/Documents/Documents/Academic/Research/CognAC/cerebellum backup/gss/resources/stimuli/stroop_practice/yellow_g.png,2025-12-05T14:22:33.669517,2025-12-05T14:25:56.905005
final_test,2,265,gss practice,gss practice,speed,True,97,/Users/alvinm/Documents/Documents/Academic/Research/CognAC/cerebellum backup/gss/resources/stimuli/stroop_practice/blue_b.png,2025-12-05T14:22:33.669517,2025-12-05T14:25:57.002519
final_test,2,266,gss practice,gss practice,speed,True,160,/Users/alvinm/Documents/Documents/Academic/Research/CognAC/cerebellum backup/gss/resources/stimuli/stroop_practice/yellow_g.png,2025-12-05T14:22:33.669517,2025-12-05T14:25:57.163889
final_test,2,267,gss practice,gss practice,speed,True,29,/Users/alvinm/Documents/Documents/Academic/Research/CognAC/cerebellum backup/gss/resources/stimuli/stroop_practice/blue_y.png,2025-12-05T14:22:33.669517,2025-12-05T14:25:57.195204
final_test,2,268,gss practice,gss practice,speed,False,142,/Users/alvinm/Documents/Documents/Academic/Research/CognAC/cerebellum backup/gss/resources/stimuli/stroop_practice/yellow_g.png,2025-12-05T14:22:33.669517,2025-12-05T14:25:57.339078
final_test,2,269,gss practice,gss practice,speed,False,128,/Users/alvinm/Documents/Documents/Academic/Research/CognAC/cerebellum backup/gss/resources/stimuli/stroop_practice/red_y.png,2025-12-05T14:22:33.669517,2025-12-05T14:25:57.469055
final_test,2,270,gss practice,gss practice,speed,False,10,/Users/alvinm/Documents/Documents/Academic/Research/CognAC/cerebellum backup/gss/resources/stimuli/stroop_practice/yellow_g.png,2025-12-05T14:22:33.669517,2025-12-05T14:25:57.481107
final_test,2,271,gss practice,gss practice,speed,False,131,/Users/alvinm/Documents/Documents/Academic/Research/CognAC/cerebellum backup/gss/resources/stimuli/stroop_practice/blue_b.png,2025-12-05T14:22:33.669517,2025-12-05T14:25:57.613509
final_test,2,272,gss practice,gss practice,speed,False,30,/Users/alvinm/Documents/Documents/Academic/Research/CognAC/cerebellum backup/gss/resources/stimuli/stroop_practice/green_r.png,2025-12-05T14:22:33.669517,2025-12-05T14:25:57.646028
final_test,2,273,gss practice,gss practice,speed,False,81,/Users/alvinm/Documents/Documents/Academic/Research/CognAC/cerebellum backup/gss/resources/stimuli/stroop_practice/blue_g.png,2025-12-05T14:22:33.669517,2025-12-05T14:25:57.729043
final_test,2,274,gss practice,gss practice,speed,False,61,/Users/alvinm/Documents/Documents/Academic/Research/CognAC/cerebellum backup/gss/resources/stimuli/stroop_practice/red_y.png,2025-12-05T14:22:33.669517,2025-12-05T14:25:57.791544
final_test,2,275,gss practice,gss practice,speed,False,79,/Users/alvinm/Documents/Documents/Academic/Research/CognAC/cerebellum backup/gss/resources/stimuli/stroop_practice/green_b.png,2025-12-05T14:22:33.669517,2025-12-05T14:25:57.872365
final_test,2,276,gss practice,gss practice,speed,False,11,/Users/alvinm/Documents/Documents/Academic/Research/CognAC/cerebellum backup/gss/resources/stimuli/stroop_practice/yellow_y.png,2025-12-05T14:22:33.669517,2025-12-05T14:25:57.885723
final_test,2,277,gss practice,gss practice,speed,False,82,/Users/alvinm/Documents/Documents/Academic/Research/CognAC/cerebellum backup/gss/resources/stimuli/stroop_practice/blue_b.png,2025-12-05T14:22:33.669517,2025-12-05T14:25:57.969703
final_test,2,278,gss practice,gss practice,speed,False,64,/Users/alvinm/Documents/Documents/Academic/Research/CognAC/cerebellum backup/gss/resources/stimuli/stroop_practice/green_y.png,2025-12-05T14:22:33.669517,2025-12-05T14:25:58.035470
final_test,2,279,gss practice,gss practice,speed,False,61,/Users/alvinm/Documents/Documents/Academic/Research/CognAC/cerebellum backup/gss/resources/stimuli/stroop_practice/yellow_g.png,2025-12-05T14:22:33.669517,2025-12-05T14:25:58.098917
final_test,2,280,gss practice,gss practice,speed,False,47,/Users/alvinm/Documents/Documents/Academic/Research/CognAC/cerebellum backup/gss/resources/stimuli/stroop_practice/blue_y.png,2025-12-05T14:22:33.669517,2025-12-05T14:25:58.147221
final_test,2,281,gss practice,gss practice,speed,False,64,/Users/alvinm/Documents/Documents/Academic/Research/CognAC/cerebellum backup/gss/resources/stimuli/stroop_practice/red_b.png,2025-12-05T14:22:33.669517,2025-12-05T14:25:58.213327
final_test,2,282,gss practice,gss practice,speed,False,80,/Users/alvinm/Documents/Documents/Academic/Research/CognAC/cerebellum backup/gss/resources/stimuli/stroop_practice/blue_y.png,2025-12-05T14:22:33.669517,2025-12-05T14:25:58.294956
final_test,2,283,gss practice,gss practice,speed,False,10,/Users/alvinm/Documents/Documents/Academic/Research/CognAC/cerebellum backup/gss/resources/stimuli/stroop_practice/green_r.png,2025-12-05T14:22:33.669517,2025-12-05T14:25:58.306455
final_test,2,284,gss practice,gss practice,speed,False,86,/Users/alvinm/Documents/Documents/Academic/Research/CognAC/cerebellum backup/gss/resources/stimuli/stroop_practice/red_y.png,2025-12-05T14:22:33.669517,2025-12-05T14:25:58.394406
final_test,2,285,gss practice,gss practice,speed,False,143,/Users/alvinm/Documents/Documents/Academic/Research/CognAC/cerebellum backup/gss/resources/stimuli/stroop_practice/green_b.png,2025-12-05T14:22:33.669517,2025-12-05T14:25:58.539223
final_test,2,286,gss practice,gss practice,speed,False,112,/Users/alvinm/Documents/Documents/Academic/Research/CognAC/cerebellum backup/gss/resources/stimuli/stroop_practice/red_g.png,2025-12-05T14:22:33.669517,2025-12-05T14:25:58.653379
final_test,2,287,gss practice,gss practice,speed,False,30,/Users/alvinm/Documents/Documents/Academic/Research/CognAC/cerebellum backup/gss/resources/stimuli/stroop_practice/blue_y.png,2025-12-05T14:22:33.669517,2025-12-05T14:25:58.685109
final_test,2,288,gss practice,gss practice,speed,False,81,/Users/alvinm/Documents/Documents/Academic/Research/CognAC/cerebellum backup/gss/resources/stimuli/stroop_practice/green_b.png,2025-12-05T14:22:33.669517,2025-12-05T14:25:58.768233
final_test,2,289,gss practice,gss practice,speed,False,46,/Users/alvinm/Documents/Documents/Academic/Research/CognAC/cerebellum backup/gss/resources/stimuli/stroop_practice/blue_y.png,2025-12-05T14:22:33.669517,2025-12-05T14:25:58.815969
final_test,2,290,gss practice,gss practice,speed,True,64,/Users/alvinm/Documents/Documents/Academic/Research/CognAC/cerebellum backup/gss/resources/stimuli/stroop_practice/yellow_r.png,2025-12-05T14:22:33.669517,2025-12-05T14:25:58.881793
final_test,2,291,gss practice,gss practice,speed,True,63,/Users/alvinm/Documents/Documents/Academic/Research/CognAC/cerebellum backup/gss/resources/stimuli/stroop_practice/green_g.png,2025-12-05T14:22:33.669517,2025-12-05T14:25:58.947204
final_test,2,292,gss practice,gss practice,speed,False,47,/Users/alvinm/Documents/Documents/Academic/Research/CognAC/cerebellum backup/gss/resources/stimuli/stroop_practice/red_r.png,2025-12-05T14:22:33.669517,2025-12-05T14:25:58.996266
final_test,2,293,gss practice,gss practice,speed,False,97,/Users/alvinm/Documents/Documents/Academic/Research/CognAC/cerebellum backup/gss/resources/stimuli/stroop_practice/blue_b.png,2025-12-05T14:22:33.669517,2025-12-05T14:25:59.095161
final_test,2,294,gss practice,gss practice,speed,False,32,/Users/alvinm/Documents/Documents/Academic/Research/CognAC/cerebellum backup/gss/resources/stimuli/stroop_practice/green_y.png,2025-12-05T14:22:33.669517,2025-12-05T14:25:59.128099
final_test,2,295,gss practice,gss practice,speed,False,80,/Users/alvinm/Documents/Documents/Academic/Research/CognAC/cerebellum backup/gss/resources/stimuli/stroop_practice/yellow_g.png,2025-12-05T14:22:33.669517,2025-12-05T14:25:59.210114
final_test,2,296,gss practice,gss practice,speed,False,12,/Users/alvinm/Documents/Documents/Academic/Research/CognAC/cerebellum backup/gss/resources/stimuli/stroop_practice/blue_y.png,2025-12-05T14:22:33.669517,2025-12-05T14:25:59.222749
final_test,2,297,gss practice,gss practice,speed,False,83,/Users/alvinm/Documents/Documents/Academic/Research/CognAC/cerebellum backup/gss/resources/stimuli/stroop_practice/yellow_b.png,2025-12-05T14:22:33.669517,2025-12-05T14:25:59.308051
final_test,2,298,gss practice,gss practice,speed,False,46,/Users/alvinm/Documents/Documents/Academic/Research/CognAC/cerebellum backup/gss/resources/stimuli/stroop_practice/red_r.png,2025-12-05T14:22:33.669517,2025-12-05T14:25:59.356112
final_test,2,299,gss practice,gss practice,speed,False,160,/Users/alvinm/Documents/Documents/Academic/Research/CognAC/cerebellum backup/gss/resources/stimuli/stroop_practice/blue_b.png,2025-12-05T14:22:33.669517,2025-12-05T14:25:59.517675
final_test,2,300,gss practice,gss practice,speed,False,30,/Users/alvinm/Documents/Documents/Academic/Research/CognAC/cerebellum backup/gss/resources/stimuli/stroop_practice/green_g.png,2025-12-05T14:22:33.669517,2025-12-05T14:25:59.550389
final_test,2,301,gss practice,gss practice,speed,False,96,/Users/alvinm/Documents/Documents/Academic/Research/CognAC/cerebellum backup/gss/resources/stimuli/stroop_practice/yellow_y.png,2025-12-05T14:22:33.669517,2025-12-05T14:25:59.648425
final_test,2,302,gss practice,gss practice,speed,False,65,/Users/alvinm/Documents/Documents/Academic/Research/CognAC/cerebellum backup/gss/resources/stimuli/stroop_practice/green_g.png,2025-12-05T14:22:33.669517,2025-12-05T14:25:59.714540
final_test,2,303,gss practice,gss practice,speed,False,116,/Users/alvinm/Documents/Documents/Academic/Research/CognAC/cerebellum backup/gss/resources/stimuli/stroop_practice/blue_b.png,2025-12-05T14:22:33.669517,2025-12-05T14:25:59.832434
final_test,2,304,gss practice,gss practice,speed,True,81,/Users/alvinm/Documents/Documents/Academic/Research/CognAC/cerebellum backup/gss/resources/stimuli/stroop_practice/red_y.png,2025-12-05T14:22:33.669517,2025-12-05T14:25:59.915595
final_test,2,305,gss practice,gss practice,speed,True,47,/Users/alvinm/Documents/Documents/Academic/Research/CognAC/cerebellum backup/gss/resources/stimuli/stroop_practice/yellow_b.png,2025-12-05T14:22:33.669517,2025-12-05T14:25:59.964852
final_test,2,306,gss practice,gss practice,speed,True,31,/Users/alvinm/Documents/Documents/Academic/Research/CognAC/cerebellum backup/gss/resources/stimuli/stroop_practice/blue_r.png,2025-12-05T14:22:33.669517,2025-12-05T14:25:59.996973
final_test,2,307,gss practice,gss practice,speed,False,96,/Users/alvinm/Documents/Documents/Academic/Research/CognAC/cerebellum backup/gss/resources/stimuli/stroop_practice/red_y.png,2025-12-05T14:22:33.669517,2025-12-05T14:26:00.093800
final_test,2,308,gss practice,gss practice,speed,False,31,/Users/alvinm/Documents/Documents/Academic/Research/CognAC/cerebellum backup/gss/resources/stimuli/stroop_practice/blue_g.png,2025-12-05T14:22:33.669517,2025-12-05T14:26:00.126713
final_test,2,309,gss practice,gss practice,speed,False,95,/Users/alvinm/Documents/Documents/Academic/Research/CognAC/cerebellum backup/gss/resources/stimuli/stroop_practice/yellow_y.png,2025-12-05T14:22:33.669517,2025-12-05T14:26:00.223663
final_test,2,310,gss practice,gss practice,speed,False,30,/Users/alvinm/Documents/Documents/Academic/Research/CognAC/cerebellum backup/gss/resources/stimuli/stroop_practice/green_b.png,2025-12-05T14:22:33.669517,2025-12-05T14:26:00.256294
final_test,2,311,gss practice,gss practice,speed,False,97,/Users/alvinm/Documents/Documents/Academic/Research/CognAC/cerebellum backup/gss/resources/stimuli/stroop_practice/yellow_r.png,2025-12-05T14:22:33.669517,2025-12-05T14:26:00.355063
final_test,2,312,gss practice,gss practice,speed,False,31,/Users/alvinm/Documents/Documents/Academic/Research/CognAC/cerebellum backup/gss/resources/stimuli/stroop_practice/green_g.png,2025-12-05T14:22:33.669517,2025-12-05T14:26:00.387825
final_test,2,313,gss practice,gss practice,speed,False,127,/Users/alvinm/Documents/Documents/Academic/Research/CognAC/cerebellum backup/gss/resources/stimuli/stroop_practice/red_y.png,2025-12-05T14:22:33.669517,2025-12-05T14:26:00.516524
final_test,2,314,gss practice,gss practice,speed,False,113,/Users/alvinm/Documents/Documents/Academic/Research/CognAC/cerebellum backup/gss/resources/stimuli/stroop_practice/blue_g.png,2025-12-05T14:22:33.669517,2025-12-05T14:26:00.631455
final_test,2,315,gss practice,gss practice,speed,False,111,/Users/alvinm/Documents/Documents/Academic/Research/CognAC/cerebellum backup/gss/resources/stimuli/stroop_practice/green_b.png,2025-12-05T14:22:33.669517,2025-12-05T14:26:00.745003
final_test,2,316,gss practice,gss practice,speed,False,31,/Users/alvinm/Documents/Documents/Academic/Research/CognAC/cerebellum backup/gss/resources/stimuli/stroop_practice/red_y.png,2025-12-05T14:22:33.669517,2025-12-05T14:26:00.776758
final_test,2,317,gss practice,gss practice,speed,False,131,/Users/alvinm/Documents/Documents/Academic/Research/CognAC/cerebellum backup/gss/resources/stimuli/stroop_practice/yellow_r.png,2025-12-05T14:22:33.669517,2025-12-05T14:26:00.910085
final_test,2,318,gss practice,gss practice,speed,False,47,/Users/alvinm/Documents/Documents/Academic/Research/CognAC/cerebellum backup/gss/resources/stimuli/stroop_practice/green_g.png,2025-12-05T14:22:33.669517,2025-12-05T14:26:00.958774
final_test,2,319,gss practice,gss practice,speed,False,49,/Users/alvinm/Documents/Documents/Academic/Research/CognAC/cerebellum backup/gss/resources/stimuli/stroop_practice/red_b.png,2025-12-05T14:22:33.669517,2025-12-05T14:26:01.009684
final_test,2,320,gss practice,gss practice,speed,False,80,/Users/alvinm/Documents/Documents/Academic/Research/CognAC/cerebellum backup/gss/resources/stimuli/stroop_practice/green_r.png,2025-12-05T14:22:33.669517,2025-12-05T14:26:01.091291
final_test,2,321,gss practice,gss practice,speed,False,48,/Users/alvinm/Documents/Documents/Academic/Research/CognAC/cerebellum backup/gss/resources/stimuli/stroop_practice/red_b.png,2025-12-05T14:22:33.669517,2025-12-05T14:26:01.140616
final_test,2,322,gss practice,gss practice,speed,False,115,/Users/alvinm/Documents/Documents/Academic/Research/CognAC/cerebellum backup/gss/resources/stimuli/stroop_practice/yellow_g.png,2025-12-05T14:22:33.669517,2025-12-05T14:26:01.257399
final_test,2,323,gss practice,gss practice,speed,False,145,/Users/alvinm/Documents/Documents/Academic/Research/CognAC/cerebellum backup/gss/resources/stimuli/stroop_practice/blue_r.png,2025-12-05T14:22:33.669517,2025-12-05T14:26:01.405395
final_test,2,324,gss practice,gss practice,speed,True,10,/Users/alvinm/Documents/Documents/Academic/Research/CognAC/cerebellum backup/gss/resources/stimuli/stroop_practice/yellow_g.png,2025-12-05T14:22:33.669517,2025-12-05T14:26:01.418228
final_test,2,325,gss practice,gss practice,speed,False,403,/Users/alvinm/Documents/Documents/Academic/Research/CognAC/cerebellum backup/gss/resources/stimuli/stroop_practice/yellow_b.png,2025-12-05T14:22:33.669517,2025-12-05T14:26:03.949001
final_test,2,326,gss practice,gss practice,speed,False,30,/Users/alvinm/Documents/Documents/Academic/Research/CognAC/cerebellum backup/gss/resources/stimuli/stroop_practice/green_g.png,2025-12-05T14:22:33.669517,2025-12-05T14:26:03.981897
final_test,2,327,gss practice,gss practice,speed,True,31,/Users/alvinm/Documents/Documents/Academic/Research/CognAC/cerebellum backup/gss/resources/stimuli/stroop_practice/yellow_b.png,2025-12-05T14:22:33.669517,2025-12-05T14:26:04.015440
final_test,2,328,gss practice,gss practice,speed,False,30,/Users/alvinm/Documents/Documents/Academic/Research/CognAC/cerebellum backup/gss/resources/stimuli/stroop_practice/red_y.png,2025-12-05T14:22:33.669517,2025-12-05T14:26:04.047790
final_test,2,329,gss practice,gss practice,speed,False,111,/Users/alvinm/Documents/Documents/Academic/Research/CognAC/cerebellum backup/gss/resources/stimuli/stroop_practice/blue_b.png,2025-12-05T14:22:33.669517,2025-12-05T14:26:04.159860
final_test,2,330,gss practice,gss practice,speed,True,29,/Users/alvinm/Documents/Documents/Academic/Research/CognAC/cerebellum backup/gss/resources/stimuli/stroop_practice/red_g.png,2025-12-05T14:22:33.669517,2025-12-05T14:26:04.191487
final_test,2,331,gss practice,gss practice,speed,False,45,/Users/alvinm/Documents/Documents/Academic/Research/CognAC/cerebellum backup/gss/resources/stimuli/stroop_practice/green_b.png,2025-12-05T14:22:33.669517,2025-12-05T14:26:04.239530
final_test,2,332,gss practice,gss practice,speed,False,29,/Users/alvinm/Documents/Documents/Academic/Research/CognAC/cerebellum backup/gss/resources/stimuli/stroop_practice/blue_y.png,2025-12-05T14:22:33.669517,2025-12-05T14:26:04.270359
final_test,2,333,gss practice,gss practice,speed,False,113,/Users/alvinm/Documents/Documents/Academic/Research/CognAC/cerebellum backup/gss/resources/stimuli/stroop_practice/yellow_r.png,2025-12-05T14:22:33.669517,2025-12-05T14:26:04.384961
final_test,2,334,gss practice,gss practice,speed,False,45,/Users/alvinm/Documents/Documents/Academic/Research/CognAC/cerebellum backup/gss/resources/stimuli/stroop_practice/red_g.png,2025-12-05T14:22:33.669517,2025-12-05T14:26:04.432331
final_test,2,335,gss practice,gss practice,speed,True,65,/Users/alvinm/Documents/Documents/Academic/Research/CognAC/cerebellum backup/gss/resources/stimuli/stroop_practice/yellow_y.png,2025-12-05T14:22:33.669517,2025-12-05T14:26:04.499234
final_test,2,336,gss practice,gss practice,speed,False,64,/Users/alvinm/Documents/Documents/Academic/Research/CognAC/cerebellum backup/gss/resources/stimuli/stroop_practice/blue_g.png,2025-12-05T14:22:33.669517,2025-12-05T14:26:04.564001
final_test,2,337,gss practice,gss practice,speed,False,31,/Users/alvinm/Documents/Documents/Academic/Research/CognAC/cerebellum backup/gss/resources/stimuli/stroop_practice/red_y.png,2025-12-05T14:22:33.669517,2025-12-05T14:26:04.597110
final_test,2,338,gss practice,gss practice,speed,False,85,/Users/alvinm/Documents/Documents/Academic/Research/CognAC/cerebellum backup/gss/resources/stimuli/stroop_practice/yellow_g.png,2025-12-05T14:22:33.669517,2025-12-05T14:26:04.683453
final_test,2,339,gss practice,gss practice,speed,True,80,/Users/alvinm/Documents/Documents/Academic/Research/CognAC/cerebellum backup/gss/resources/stimuli/stroop_practice/red_r.png,2025-12-05T14:22:33.669517,2025-12-05T14:26:04.766235
final_test,2,340,gss practice,gss practice,speed,False,10,/Users/alvinm/Documents/Documents/Academic/Research/CognAC/cerebellum backup/gss/resources/stimuli/stroop_practice/green_y.png,2025-12-05T14:22:33.669517,2025-12-05T14:26:04.778283
final_test,2,341,gss practice,gss practice,speed,False,100,/Users/alvinm/Documents/Documents/Academic/Research/CognAC/cerebellum backup/gss/resources/stimuli/stroop_practice/blue_r.png,2025-12-05T14:22:33.669517,2025-12-05T14:26:04.879921
final_test,2,342,gss practice,gss practice,speed,True,47,/Users/alvinm/Documents/Documents/Academic/Research/CognAC/cerebellum backup/gss/resources/stimuli/stroop_practice/red_g.png,2025-12-05T14:22:33.669517,2025-12-05T14:26:04.929579
final_test,2,343,gss practice,gss practice,speed,False,12,/Users/alvinm/Documents/Documents/Academic/Research/CognAC/cerebellum backup/gss/resources/stimuli/stroop_practice/yellow_b.png,2025-12-05T14:22:33.669517,2025-12-05T14:26:04.942890
final_test,2,344,gss practice,gss practice,speed,False,35,/Users/alvinm/Documents/Documents/Academic/Research/CognAC/cerebellum backup/gss/resources/stimuli/stroop_practice/green_y.png,2025-12-05T14:22:33.669517,2025-12-05T14:26:04.979217
final_test,2,345,gss practice,gss practice,speed,False,65,/Users/alvinm/Documents/Documents/Academic/Research/CognAC/cerebellum backup/gss/resources/stimuli/stroop_practice/red_b.png,2025-12-05T14:22:33.669517,2025-12-05T14:26:05.045416
final_test,2,346,gss practice,gss practice,speed,True,79,/Users/alvinm/Documents/Documents/Academic/Research/CognAC/cerebellum backup/gss/resources/stimuli/stroop_practice/yellow_r.png,2025-12-05T14:22:33.669517,2025-12-05T14:26:05.126325
final_test,2,347,gss practice,gss practice,speed,False,30,/Users/alvinm/Documents/Documents/Academic/Research/CognAC/cerebellum backup/gss/resources/stimuli/stroop_practice/red_y.png,2025-12-05T14:22:33.669517,2025-12-05T14:26:05.158435
final_test,2,348,gss practice,gss practice,speed,True,97,/Users/alvinm/Documents/Documents/Academic/Research/CognAC/cerebellum backup/gss/resources/stimuli/stroop_practice/green_g.png,2025-12-05T14:22:33.669517,2025-12-05T14:26:05.257506
final_test,2,349,gss practice,gss practice,speed,False,111,/Users/alvinm/Documents/Documents/Academic/Research/CognAC/cerebellum backup/gss/resources/stimuli/stroop_practice/red_y.png,2025-12-05T14:22:33.669517,2025-12-05T14:26:05.370685
final_test,2,350,gss practice,gss practice,speed,False,114,/Users/alvinm/Documents/Documents/Academic/Research/CognAC/cerebellum backup/gss/resources/stimuli/stroop_practice/green_b.png,2025-12-05T14:22:33.669517,2025-12-05T14:26:05.486511
final_test,2,351,gss practice,gss practice,speed,False,95,/Users/alvinm/Documents/Documents/Academic/Research/CognAC/cerebellum backup/gss/resources/stimuli/stroop_practice/red_y.png,2025-12-05T14:22:33.669517,2025-12-05T14:26:05.584063
final_test,2,352,gss practice,gss practice,speed,True,111,/Users/alvinm/Documents/Documents/Academic/Research/CognAC/cerebellum backup/gss/resources/stimuli/stroop_practice/blue_b.png,2025-12-05T14:22:33.669517,2025-12-05T14:26:05.697195
final_test,2,353,gss practice,gss practice,speed,False,82,/Users/alvinm/Documents/Documents/Academic/Research/CognAC/cerebellum backup/gss/resources/stimuli/stroop_practice/green_g.png,2025-12-05T14:22:33.669517,2025-12-05T14:26:05.780360
final_test,2,354,gss practice,gss practice,speed,False,31,/Users/alvinm/Documents/Documents/Academic/Research/CognAC/cerebellum backup/gss/resources/stimuli/stroop_practice/blue_r.png,2025-12-05T14:22:33.669517,2025-12-05T14:26:05.813860
final_test,2,355,gss practice,gss practice,speed,True,29,/Users/alvinm/Documents/Documents/Academic/Research/CognAC/cerebellum backup/gss/resources/stimuli/stroop_practice/green_y.png,2025-12-05T14:22:33.669517,2025-12-05T14:26:05.844591
final_test,2,356,gss practice,gss practice,speed,False,148,/Users/alvinm/Documents/Documents/Academic/Research/CognAC/cerebellum backup/gss/resources/stimuli/stroop_practice/yellow_b.png,2025-12-05T14:22:33.669517,2025-12-05T14:26:05.993811
final_test,2,357,gss practice,gss practice,speed,True,80,/Users/alvinm/Documents/Documents/Academic/Research/CognAC/cerebellum backup/gss/resources/stimuli/stroop_practice/blue_y.png,2025-12-05T14:22:33.669517,2025-12-05T14:26:06.076112
final_test,2,358,gss practice,gss practice,speed,True,94,/Users/alvinm/Documents/Documents/Academic/Research/CognAC/cerebellum backup/gss/resources/stimuli/stroop_practice/red_g.png,2025-12-05T14:22:33.669517,2025-12-05T14:26:06.172394
final_test,2,359,gss practice,gss practice,speed,False,109,/Users/alvinm/Documents/Documents/Academic/Research/CognAC/cerebellum backup/gss/resources/stimuli/stroop_practice/yellow_y.png,2025-12-05T14:22:33.669517,2025-12-05T14:26:06.284496
final_test,2,360,gss practice,gss practice,speed,False,161,/Users/alvinm/Documents/Documents/Academic/Research/CognAC/cerebellum backup/gss/resources/stimuli/stroop_practice/blue_g.png,2025-12-05T14:22:33.669517,2025-12-05T14:26:06.448195
final_test,2,361,gss practice,gss practice,speed,False,64,/Users/alvinm/Documents/Documents/Academic/Research/CognAC/cerebellum backup/gss/resources/stimuli/stroop_practice/yellow_y.png,2025-12-05T14:22:33.669517,2025-12-05T14:26:06.513638
final_test,2,362,gss practice,gss practice,speed,False,11,/Users/alvinm/Documents/Documents/Academic/Research/CognAC/cerebellum backup/gss/resources/stimuli/stroop_practice/blue_r.png,2025-12-05T14:22:33.669517,2025-12-05T14:26:06.527482
final_test,2,363,gss practice,gss practice,speed,False,132,/Users/alvinm/Documents/Documents/Academic/Research/CognAC/cerebellum backup/gss/resources/stimuli/stroop_practice/yellow_y.png,2025-12-05T14:22:33.669517,2025-12-05T14:26:06.661827
final_test,2,364,gss practice,gss practice,speed,False,30,/Users/alvinm/Documents/Documents/Academic/Research/CognAC/cerebellum backup/gss/resources/stimuli/stroop_practice/red_g.png,2025-12-05T14:22:33.669517,2025-12-05T14:26:06.694377
final_test,2,365,gss practice,gss practice,speed,False,79,/Users/alvinm/Documents/Documents/Academic/Research/CognAC/cerebellum backup/gss/resources/stimuli/stroop_practice/yellow_r.png,2025-12-05T14:22:33.669517,2025-12-05T14:26:06.774882
final_test,2,366,gss practice,gss practice,speed,False,62,/Users/alvinm/Documents/Documents/Academic/Research/CognAC/cerebellum backup/gss/resources/stimuli/stroop_practice/blue_b.png,2025-12-05T14:22:33.669517,2025-12-05T14:26:06.839179
final_test,2,367,gss practice,gss practice,speed,False,98,/Users/alvinm/Documents/Documents/Academic/Research/CognAC/cerebellum backup/gss/resources/stimuli/stroop_practice/red_y.png,2025-12-05T14:22:33.669517,2025-12-05T14:26:06.937891
final_test,2,368,gss practice,gss practice,speed,False,77,/Users/alvinm/Documents/Documents/Academic/Research/CognAC/cerebellum backup/gss/resources/stimuli/stroop_practice/blue_r.png,2025-12-05T14:22:33.669517,2025-12-05T14:26:07.017068
final_test,2,369,gss practice,gss practice,speed,False,31,/Users/alvinm/Documents/Documents/Academic/Research/CognAC/cerebellum backup/gss/resources/stimuli/stroop_practice/green_y.png,2025-12-05T14:22:33.669517,2025-12-05T14:26:07.050375
final_test,2,370,gss practice,gss practice,speed,False,97,/Users/alvinm/Documents/Documents/Academic/Research/CognAC/cerebellum backup/gss/resources/stimuli/stroop_practice/blue_b.png,2025-12-05T14:22:33.669517,2025-12-05T14:26:07.149187
final_test,2,371,gss practice,gss practice,speed,False,32,/Users/alvinm/Documents/Documents/Academic/Research/CognAC/cerebellum backup/gss/resources/stimuli/stroop_practice/green_y.png,2025-12-05T14:22:33.669517,2025-12-05T14:26:07.181940
final_test,2,372,gss practice,gss practice,speed,True,96,/Users/alvinm/Documents/Documents/Academic/Research/CognAC/cerebellum backup/gss/resources/stimuli/stroop_practice/blue_g.png,2025-12-05T14:22:33.669517,2025-12-05T14:26:07.280684
final_test,2,373,gss practice,gss practice,speed,False,95,/Users/alvinm/Documents/Documents/Academic/Research/CognAC/cerebellum backup/gss/resources/stimuli/stroop_practice/yellow_y.png,2025-12-05T14:22:33.669517,2025-12-05T14:26:07.376831
final_test,2,374,gss practice,gss practice,speed,True,11,/Users/alvinm/Documents/Documents/Academic/Research/CognAC/cerebellum backup/gss/resources/stimuli/stroop_practice/blue_b.png,2025-12-05T14:22:33.669517,2025-12-05T14:26:07.389952
final_test,2,375,gss practice,gss practice,speed,False,82,/Users/alvinm/Documents/Documents/Academic/Research/CognAC/cerebellum backup/gss/resources/stimuli/stroop_practice/red_g.png,2025-12-05T14:22:33.669517,2025-12-05T14:26:07.474775
final_test,2,376,gss practice,gss practice,speed,False,177,/Users/alvinm/Documents/Documents/Academic/Research/CognAC/cerebellum backup/gss/resources/stimuli/stroop_practice/green_r.png,2025-12-05T14:22:33.669517,2025-12-05T14:26:07.654082
final_test,2,377,gss practice,gss practice,speed,False,177,/Users/alvinm/Documents/Documents/Academic/Research/CognAC/cerebellum backup/gss/resources/stimuli/stroop_practice/blue_g.png,2025-12-05T14:22:33.669517,2025-12-05T14:26:07.833517
final_test,2,378,gss practice,gss practice,speed,False,30,/Users/alvinm/Documents/Documents/Academic/Research/CognAC/cerebellum backup/gss/resources/stimuli/stroop_practice/red_r.png,2025-12-05T14:22:33.669517,2025-12-05T14:26:07.865773
final_test,2,379,gss practice,gss practice,speed,False,113,/Users/alvinm/Documents/Documents/Academic/Research/CognAC/cerebellum backup/gss/resources/stimuli/stroop_practice/green_b.png,2025-12-05T14:22:33.669517,2025-12-05T14:26:07.981754
final_test,2,380,gss practice,gss practice,speed,False,90,/Users/alvinm/Documents/Documents/Academic/Research/CognAC/cerebellum backup/gss/resources/stimuli/stroop_practice/blue_r.png,2025-12-05T14:22:33.669517,2025-12-05T14:26:08.074781
final_test,2,381,gss practice,gss practice,speed,True,27,/Users/alvinm/Documents/Documents/Academic/Research/CognAC/cerebellum backup/gss/resources/stimuli/stroop_practice/red_b.png,2025-12-05T14:22:33.669517,2025-12-05T14:26:08.104307
final_test,2,382,gss practice,gss practice,speed,True,93,/Users/alvinm/Documents/Documents/Academic/Research/CognAC/cerebellum backup/gss/resources/stimuli/stroop_practice/yellow_y.png,2025-12-05T14:22:33.669517,2025-12-05T14:26:08.199860
final_test,2,383,gss practice,gss practice,speed,False,62,/Users/alvinm/Documents/Documents/Academic/Research/CognAC/cerebellum backup/gss/resources/stimuli/stroop_practice/blue_b.png,2025-12-05T14:22:33.669517,2025-12-05T14:26:08.264551
final_test,2,384,gss practice,gss practice,accuracy,True,1538,/Users/alvinm/Documents/Documents/Academic/Research/CognAC/cerebellum backup/gss/resources/stimuli/stroop_practice/red_r.png,2025-12-05T14:22:33.669517,2025-12-05T14:26:12.389371
final_test,2,385,gss practice,gss practice,accuracy,True,623,/Users/alvinm/Documents/Documents/Academic/Research/CognAC/cerebellum backup/gss/resources/stimuli/stroop_practice/green_g.png,2025-12-05T14:22:33.669517,2025-12-05T14:26:13.014579
final_test,2,386,gss practice,gss practice,accuracy,True,506,/Users/alvinm/Documents/Documents/Academic/Research/CognAC/cerebellum backup/gss/resources/stimuli/stroop_practice/red_b.png,2025-12-05T14:22:33.669517,2025-12-05T14:26:13.522500
final_test,2,387,gss practice,gss practice,accuracy,True,724,/Users/alvinm/Documents/Documents/Academic/Research/CognAC/cerebellum backup/gss/resources/stimuli/stroop_practice/green_r.png,2025-12-05T14:22:33.669517,2025-12-05T14:26:16.610181
final_test,2,388,gss practice,gss practice,accuracy,False,128,/Users/alvinm/Documents/Documents/Academic/Research/CognAC/cerebellum backup/gss/resources/stimuli/stroop_practice/red_g.png,2025-12-05T14:22:33.669517,2025-12-05T14:26:16.739512
final_test,2,389,gss practice,gss practice,accuracy,False,78,/Users/alvinm/Documents/Documents/Academic/Research/CognAC/cerebellum backup/gss/resources/stimuli/stroop_practice/green_y.png,2025-12-05T14:22:33.669517,2025-12-05T14:26:16.819945
final_test,2,390,gss practice,gss practice,accuracy,False,97,/Users/alvinm/Documents/Documents/Academic/Research/CognAC/cerebellum backup/gss/resources/stimuli/stroop_practice/blue_b.png,2025-12-05T14:22:33.669517,2025-12-05T14:26:16.918515
final_test,2,391,gss practice,gss practice,accuracy,False,692,/Users/alvinm/Documents/Documents/Academic/Research/CognAC/cerebellum backup/gss/resources/stimuli/stroop_practice/red_y.png,2025-12-05T14:22:33.669517,2025-12-05T14:26:17.612864
final_test,2,392,gss practice,gss practice,accuracy,False,338,/Users/alvinm/Documents/Documents/Academic/Research/CognAC/cerebellum backup/gss/resources/stimuli/stroop_practice/blue_b.png,2025-12-05T14:22:33.669517,2025-12-05T14:26:17.953504
final_test,2,393,gss practice,gss practice,accuracy,False,258,/Users/alvinm/Documents/Documents/Academic/Research/CognAC/cerebellum backup/gss/resources/stimuli/stroop_practice/yellow_y.png,2025-12-05T14:22:33.669517,2025-12-05T14:26:18.213330
final_test,2,394,gss practice,gss practice,accuracy,True,263,/Users/alvinm/Documents/Documents/Academic/Research/CognAC/cerebellum backup/gss/resources/stimuli/stroop_practice/red_r.png,2025-12-05T14:22:33.669517,2025-12-05T14:26:18.477392
final_test,2,395,gss practice,gss practice,accuracy,True,245,/Users/alvinm/Documents/Documents/Academic/Research/CognAC/cerebellum backup/gss/resources/stimuli/stroop_practice/blue_g.png,2025-12-05T14:22:33.669517,2025-12-05T14:26:18.725077
final_test,2,396,gss practice,gss practice,accuracy,True,280,/Users/alvinm/Documents/Documents/Academic/Research/CognAC/cerebellum backup/gss/resources/stimuli/stroop_practice/green_y.png,2025-12-05T14:22:33.669517,2025-12-05T14:26:19.006147
final_test,2,397,gss practice,gss practice,accuracy,False,141,/Users/alvinm/Documents/Documents/Academic/Research/CognAC/cerebellum backup/gss/resources/stimuli/stroop_practice/blue_g.png,2025-12-05T14:22:33.669517,2025-12-05T14:26:19.149348
final_test,2,398,gss practice,gss practice,accuracy,False,111,/Users/alvinm/Documents/Documents/Academic/Research/CognAC/cerebellum backup/gss/resources/stimuli/stroop_practice/green_y.png,2025-12-05T14:22:33.669517,2025-12-05T14:26:19.262201
final_test,2,399,gss practice,gss practice,accuracy,False,180,/Users/alvinm/Documents/Documents/Academic/Research/CognAC/cerebellum backup/gss/resources/stimuli/stroop_practice/yellow_g.png,2025-12-05T14:22:33.669517,2025-12-05T14:26:19.444899
final_test,2,400,gss practice,gss practice,accuracy,False,176,/Users/alvinm/Documents/Documents/Academic/Research/CognAC/cerebellum backup/gss/resources/stimuli/stroop_practice/red_y.png,2025-12-05T14:22:33.669517,2025-12-05T14:26:19.622933
final_test,2,401,gss practice,gss practice,accuracy,False,212,/Users/alvinm/Documents/Documents/Academic/Research/CognAC/cerebellum backup/gss/resources/stimuli/stroop_practice/green_r.png,2025-12-05T14:22:33.669517,2025-12-05T14:26:19.836193
final_test,2,402,gss practice,gss practice,accuracy,True,223,/Users/alvinm/Documents/Documents/Academic/Research/CognAC/cerebellum backup/gss/resources/stimuli/stroop_practice/blue_y.png,2025-12-05T14:22:33.669517,2025-12-05T14:26:20.062103
final_test,2,403,gss practice,gss practice,accuracy,False,46,/Users/alvinm/Documents/Documents/Academic/Research/CognAC/cerebellum backup/gss/resources/stimuli/stroop_practice/yellow_r.png,2025-12-05T14:22:33.669517,2025-12-05T14:26:20.110651
final_test,2,404,gss practice,gss practice,accuracy,False,341,/Users/alvinm/Documents/Documents/Academic/Research/CognAC/cerebellum backup/gss/resources/stimuli/stroop_practice/red_y.png,2025-12-05T14:22:33.669517,2025-12-05T14:26:20.453974
final_test,2,405,gss practice,gss practice,accuracy,False,294,/Users/alvinm/Documents/Documents/Academic/Research/CognAC/cerebellum backup/gss/resources/stimuli/stroop_practice/blue_b.png,2025-12-05T14:22:33.669517,2025-12-05T14:26:20.749567
final_test,2,406,gss practice,gss practice,speed,True,830,/Users/alvinm/Documents/Documents/Academic/Research/CognAC/cerebellum backup/gss/resources/stimuli/stroop_practice/blue_b.png,2025-12-05T14:22:33.669517,2025-12-05T14:26:26.748156
final_test,2,407,gss practice,gss practice,speed,True,522,/Users/alvinm/Documents/Documents/Academic/Research/CognAC/cerebellum backup/gss/resources/stimuli/stroop_practice/yellow_g.png,2025-12-05T14:22:33.669517,2025-12-05T14:26:27.271793
final_test,2,408,gss practice,gss practice,speed,True,418,/Users/alvinm/Documents/Documents/Academic/Research/CognAC/cerebellum backup/gss/resources/stimuli/stroop_practice/green_b.png,2025-12-05T14:22:33.669517,2025-12-05T14:26:27.691598
final_test,2,409,gss practice,gss practice,speed,True,536,/Users/alvinm/Documents/Documents/Academic/Research/CognAC/cerebellum backup/gss/resources/stimuli/stroop_practice/blue_y.png,2025-12-05T14:22:33.669517,2025-12-05T14:26:28.229423
final_test,2,410,gss practice,gss practice,speed,False,483,/Users/alvinm/Documents/Documents/Academic/Research/CognAC/cerebellum backup/gss/resources/stimuli/stroop_practice/red_b.png,2025-12-05T14:22:33.669517,2025-12-05T14:26:28.714836
final_test,2,411,gss practice,gss practice,speed,False,33,/Users/alvinm/Documents/Documents/Academic/Research/CognAC/cerebellum backup/gss/resources/stimuli/stroop_practice/blue_y.png,2025-12-05T14:22:33.669517,2025-12-05T14:26:28.750678
final_test,2,412,gss practice,gss practice,speed,False,492,/Users/alvinm/Documents/Documents/Academic/Research/CognAC/cerebellum backup/gss/resources/stimuli/stroop_practice/red_r.png,2025-12-05T14:22:33.669517,2025-12-05T14:26:31.435259
final_test,2,413,gss practice,gss practice,speed,False,44,/Users/alvinm/Documents/Documents/Academic/Research/CognAC/cerebellum backup/gss/resources/stimuli/stroop_practice/blue_b.png,2025-12-05T14:22:33.669517,2025-12-05T14:26:31.481599
final_test,2,414,gss practice,gss practice,speed,False,583,/Users/alvinm/Documents/Documents/Academic/Research/CognAC/cerebellum backup/gss/resources/stimuli/stroop_practice/green_r.png,2025-12-05T14:22:33.669517,2025-12-05T14:26:32.066639
